block	trial_type	phase	turn	tokens	alpha	final_value	correct	stay	earnings	response_time
1.000000	i_116_a1.4	dec_learn	1.000000	34.000000	1.400000	116.000000	n/a	n/a	n/a	3.503000
1.000000	i_116_a1.4	dec_learn	2.000000	58.000000	1.400000	116.000000	n/a	n/a	n/a	1.781000
1.000000	i_116_a1.4	dec_learn	3.000000	75.000000	1.400000	116.000000	n/a	n/a	n/a	1.532000
1.000000	i_116_a1.4	dec_learn	4.000000	87.000000	1.400000	116.000000	n/a	n/a	n/a	1.904000
1.000000	i_116_a1.4	dec_stay	5.000000	96.000000	1.400000	116.000000	1	1	6.5	1.504000
1.000000	i_116_a1.4	feedback	5	n/a	1.400000	116.000000	n/a	n/a	n/a	2.015000
2.000000	i_84_a1.4	dec_learn	1.000000	25.000000	1.400000	84.000000	n/a	n/a	n/a	3.738000
2.000000	i_84_a1.4	dec_learn	2.000000	42.000000	1.400000	84.000000	n/a	n/a	n/a	2.240000
2.000000	i_84_a1.4	dec_learn	3.000000	55.000000	1.400000	84.000000	n/a	n/a	n/a	1.485000
2.000000	i_84_a1.4	dec_learn	4.000000	64.000000	1.400000	84.000000	n/a	n/a	n/a	1.401000
2.000000	i_84_a1.4	dec_learn	5.000000	70.000000	1.400000	84.000000	n/a	n/a	n/a	3.143000
2.000000	i_84_a1.4	dec_leave	6.000000	75.000000	1.400000	84.000000	1	0	6	9.921000
2.000000	i_84_a1.4	feedback	6	n/a	1.400000	84.000000	n/a	n/a	n/a	2.667000
3.000000	e_59_a1.4	dec_learn	1.000000	0.000000	1.400000	59.000000	n/a	n/a	n/a	2.015000
3.000000	e_59_a1.4	dec_learn	2.000000	1.000000	1.400000	59.000000	n/a	n/a	n/a	1.381000
3.000000	e_59_a1.4	dec_learn	3.000000	2.000000	1.400000	59.000000	n/a	n/a	n/a	1.084000
3.000000	e_59_a1.4	dec_learn	4.000000	3.000000	1.400000	59.000000	n/a	n/a	n/a	1.174000
3.000000	e_59_a1.4	dec_learn	5.000000	5.000000	1.400000	59.000000	n/a	n/a	n/a	1.486000
3.000000	e_59_a1.4	dec_stay	6.000000	7.000000	1.400000	59.000000	0	1	0	11.768000
3.000000	e_59_a1.4	feedback	6	n/a	1.400000	59.000000	n/a	n/a	n/a	1.677000
4.000000	e_166_a1.4	dec_learn	1.000000	1.000000	1.400000	166.000000	n/a	n/a	n/a	3.987000
4.000000	e_166_a1.4	dec_learn	2.000000	3.000000	1.400000	166.000000	n/a	n/a	n/a	1.386000
4.000000	e_166_a1.4	dec_learn	3.000000	5.000000	1.400000	166.000000	n/a	n/a	n/a	1.600000
4.000000	e_166_a1.4	dec_learn	4.000000	9.000000	1.400000	166.000000	n/a	n/a	n/a	4.801000
4.000000	e_166_a1.4	dec_learn	5.000000	13.000000	1.400000	166.000000	n/a	n/a	n/a	4.483000
4.000000	e_166_a1.4	dec_leave	6.000000	19.000000	1.400000	166.000000	0	0	0	4.567000
4.000000	e_166_a1.4	feedback	6	n/a	1.400000	166.000000	n/a	n/a	n/a	9.640000
5.000000	e_127_a1.2	dec_learn	1.000000	3.000000	1.200000	127.000000	n/a	n/a	n/a	2.593000
5.000000	e_127_a1.2	dec_learn	2.000000	7.000000	1.200000	127.000000	n/a	n/a	n/a	2.948000
5.000000	e_127_a1.2	dec_learn	3.000000	12.000000	1.200000	127.000000	n/a	n/a	n/a	2.416000
5.000000	e_127_a1.2	dec_learn	4.000000	17.000000	1.200000	127.000000	n/a	n/a	n/a	2.383000
5.000000	e_127_a1.2	dec_learn	5.000000	24.000000	1.200000	127.000000	n/a	n/a	n/a	5.116000
5.000000	e_127_a1.2	dec_stay	6.000000	32.000000	1.200000	127.000000	1	1	6	5.944000
5.000000	e_127_a1.2	feedback	6	n/a	1.200000	127.000000	n/a	n/a	n/a	1.311000
6.000000	e_59_a1.4	dec_learn	1.000000	0.000000	1.400000	59.000000	n/a	n/a	n/a	3.522000
6.000000	e_59_a1.4	dec_learn	2.000000	1.000000	1.400000	59.000000	n/a	n/a	n/a	1.501000
6.000000	e_59_a1.4	dec_learn	3.000000	2.000000	1.400000	59.000000	n/a	n/a	n/a	1.404000
6.000000	e_59_a1.4	dec_learn	4.000000	3.000000	1.400000	59.000000	n/a	n/a	n/a	1.790000
6.000000	e_59_a1.4	dec_learn	5.000000	5.000000	1.400000	59.000000	n/a	n/a	n/a	1.411000
6.000000	e_59_a1.4	dec_leave	6.000000	7.000000	1.400000	59.000000	1	0	6	3.984000
6.000000	e_59_a1.4	feedback	6	n/a	1.400000	59.000000	n/a	n/a	n/a	2.445000
7.000000	i_116_a1.4	dec_learn	1.000000	34.000000	1.400000	116.000000	n/a	n/a	n/a	4.754000
7.000000	i_116_a1.4	dec_learn	2.000000	58.000000	1.400000	116.000000	n/a	n/a	n/a	23.840000
7.000000	i_116_a1.4	dec_learn	3.000000	75.000000	1.400000	116.000000	n/a	n/a	n/a	1.633000
7.000000	i_116_a1.4	dec_learn	4.000000	87.000000	1.400000	116.000000	n/a	n/a	n/a	1.308000
7.000000	i_116_a1.4	dec_learn	5.000000	96.000000	1.400000	116.000000	n/a	n/a	n/a	1.421000
7.000000	i_116_a1.4	dec_stay	6.000000	102.000000	1.400000	116.000000	1	1	6	2.079000
7.000000	i_116_a1.4	feedback	6	n/a	1.400000	116.000000	n/a	n/a	n/a	2.060000
8.000000	e_127_a1.2	dec_learn	1.000000	3.000000	1.200000	127.000000	n/a	n/a	n/a	3.815000
8.000000	e_127_a1.2	dec_learn	2.000000	7.000000	1.200000	127.000000	n/a	n/a	n/a	1.600000
8.000000	e_127_a1.2	dec_learn	3.000000	12.000000	1.200000	127.000000	n/a	n/a	n/a	1.718000
8.000000	e_127_a1.2	dec_learn	4.000000	17.000000	1.200000	127.000000	n/a	n/a	n/a	2.179000
8.000000	e_127_a1.2	dec_learn	5.000000	24.000000	1.200000	127.000000	n/a	n/a	n/a	5.594000
8.000000	e_127_a1.2	dec_stay	6.000000	32.000000	1.200000	127.000000	1	1	6	6.032000
8.000000	e_127_a1.2	feedback	6	n/a	1.200000	127.000000	n/a	n/a	n/a	1.843000
9.000000	e_59_a1.4	dec_learn	1.000000	0.000000	1.400000	59.000000	n/a	n/a	n/a	2.037000
9.000000	e_59_a1.4	dec_learn	2.000000	1.000000	1.400000	59.000000	n/a	n/a	n/a	1.040000
9.000000	e_59_a1.4	dec_learn	3.000000	2.000000	1.400000	59.000000	n/a	n/a	n/a	1.343000
9.000000	e_59_a1.4	dec_learn	4.000000	3.000000	1.400000	59.000000	n/a	n/a	n/a	1.001000
9.000000	e_59_a1.4	dec_learn	5.000000	5.000000	1.400000	59.000000	n/a	n/a	n/a	1.171000
9.000000	e_59_a1.4	dec_leave	6.000000	7.000000	1.400000	59.000000	1	0	6	3.139000
9.000000	e_59_a1.4	feedback	6	n/a	1.400000	59.000000	n/a	n/a	n/a	1.745000
10.000000	e_78_a1.2	dec_learn	1.000000	2.000000	1.200000	78.000000	n/a	n/a	n/a	2.469000
10.000000	e_78_a1.2	dec_learn	2.000000	4.000000	1.200000	78.000000	n/a	n/a	n/a	2.628000
10.000000	e_78_a1.2	dec_learn	3.000000	7.000000	1.200000	78.000000	n/a	n/a	n/a	5.230000
10.000000	e_78_a1.2	dec_learn	4.000000	11.000000	1.200000	78.000000	n/a	n/a	n/a	4.767000
10.000000	e_78_a1.2	dec_learn	5.000000	15.000000	1.200000	78.000000	n/a	n/a	n/a	2.352000
10.000000	e_78_a1.2	dec_stay	6.000000	20.000000	1.200000	78.000000	0	1	0	5.262000
10.000000	e_78_a1.2	feedback	6	n/a	1.200000	78.000000	n/a	n/a	n/a	1.276000
11.000000	e_78_a1.2	dec_learn	1.000000	2.000000	1.200000	78.000000	n/a	n/a	n/a	2.066000
11.000000	e_78_a1.2	dec_learn	2.000000	4.000000	1.200000	78.000000	n/a	n/a	n/a	1.078000
11.000000	e_78_a1.2	dec_learn	3.000000	7.000000	1.200000	78.000000	n/a	n/a	n/a	1.064000
11.000000	e_78_a1.2	dec_learn	4.000000	11.000000	1.200000	78.000000	n/a	n/a	n/a	1.191000
11.000000	e_78_a1.2	dec_learn	5.000000	15.000000	1.200000	78.000000	n/a	n/a	n/a	1.480000
11.000000	e_78_a1.2	dec_leave	6.000000	20.000000	1.200000	78.000000	1	0	6	2.072000
11.000000	e_78_a1.2	feedback	6	n/a	1.200000	78.000000	n/a	n/a	n/a	1.138000
12.000000	i_88_a1.2	dec_learn	1.000000	16.000000	1.200000	88.000000	n/a	n/a	n/a	2.080000
12.000000	i_88_a1.2	dec_learn	2.000000	30.000000	1.200000	88.000000	n/a	n/a	n/a	1.136000
12.000000	i_88_a1.2	dec_learn	3.000000	42.000000	1.200000	88.000000	n/a	n/a	n/a	1.126000
12.000000	i_88_a1.2	dec_learn	4.000000	51.000000	1.200000	88.000000	n/a	n/a	n/a	1.221000
12.000000	i_88_a1.2	dec_learn	5.000000	59.000000	1.200000	88.000000	n/a	n/a	n/a	1.905000
12.000000	i_88_a1.2	dec_stay	6.000000	66.000000	1.200000	88.000000	0	1	0	1.873000
12.000000	i_88_a1.2	feedback	6	n/a	1.200000	88.000000	n/a	n/a	n/a	1.155000
13.000000	i_84_a1.4	dec_learn	1.000000	25.000000	1.400000	84.000000	n/a	n/a	n/a	1.879000
13.000000	i_84_a1.4	dec_learn	2.000000	42.000000	1.400000	84.000000	n/a	n/a	n/a	1.380000
13.000000	i_84_a1.4	dec_learn	3.000000	55.000000	1.400000	84.000000	n/a	n/a	n/a	1.227000
13.000000	i_84_a1.4	dec_learn	4.000000	64.000000	1.400000	84.000000	n/a	n/a	n/a	1.442000
13.000000	i_84_a1.4	dec_learn	5.000000	70.000000	1.400000	84.000000	n/a	n/a	n/a	5.494000
13.000000	i_84_a1.4	dec_leave	6.000000	75.000000	1.400000	84.000000	1	0	6	0.000000
13.000000	i_84_a1.4	feedback	6	n/a	1.400000	84.000000	n/a	n/a	n/a	1.008000
14.000000	i_88_a1.2	dec_learn	1.000000	16.000000	1.200000	88.000000	n/a	n/a	n/a	2.949000
14.000000	i_88_a1.2	dec_learn	2.000000	30.000000	1.200000	88.000000	n/a	n/a	n/a	1.711000
14.000000	i_88_a1.2	dec_learn	3.000000	42.000000	1.200000	88.000000	n/a	n/a	n/a	1.899000
14.000000	i_88_a1.2	dec_learn	4.000000	51.000000	1.200000	88.000000	n/a	n/a	n/a	3.254000
14.000000	i_88_a1.2	dec_learn	5.000000	59.000000	1.200000	88.000000	n/a	n/a	n/a	1.722000
14.000000	i_88_a1.2	dec_leave	6.000000	66.000000	1.200000	88.000000	1	0	6	2.217000
14.000000	i_88_a1.2	feedback	6	n/a	1.200000	88.000000	n/a	n/a	n/a	1.555000
15.000000	i_113_a1.2	dec_learn	1.000000	21.000000	1.200000	113.000000	n/a	n/a	n/a	2.029000
15.000000	i_113_a1.2	dec_learn	2.000000	39.000000	1.200000	113.000000	n/a	n/a	n/a	1.262000
15.000000	i_113_a1.2	dec_learn	3.000000	53.000000	1.200000	113.000000	n/a	n/a	n/a	1.595000
15.000000	i_113_a1.2	dec_learn	4.000000	66.000000	1.200000	113.000000	n/a	n/a	n/a	1.948000
15.000000	i_113_a1.2	dec_learn	5.000000	76.000000	1.200000	113.000000	n/a	n/a	n/a	1.584000
15.000000	i_113_a1.2	dec_stay	6.000000	84.000000	1.200000	113.000000	1	1	6	7.684000
15.000000	i_113_a1.2	feedback	6	n/a	1.200000	113.000000	n/a	n/a	n/a	1.214000
16.000000	e_127_a1.2	dec_learn	1.000000	3.000000	1.200000	127.000000	n/a	n/a	n/a	9.979000
16.000000	e_127_a1.2	dec_learn	2.000000	7.000000	1.200000	127.000000	n/a	n/a	n/a	4.645000
16.000000	e_127_a1.2	dec_learn	3.000000	12.000000	1.200000	127.000000	n/a	n/a	n/a	3.534000
16.000000	e_127_a1.2	dec_learn	4.000000	17.000000	1.200000	127.000000	n/a	n/a	n/a	1.874000
16.000000	e_127_a1.2	dec_learn	5.000000	24.000000	1.200000	127.000000	n/a	n/a	n/a	4.959000
16.000000	e_127_a1.2	dec_stay	6.000000	32.000000	1.200000	127.000000	1	1	6	3.039000
16.000000	e_127_a1.2	feedback	6	n/a	1.200000	127.000000	n/a	n/a	n/a	54.005000
17.000000	i_88_a1.2	dec_learn	1.000000	16.000000	1.200000	88.000000	n/a	n/a	n/a	2.553000
17.000000	i_88_a1.2	dec_learn	2.000000	30.000000	1.200000	88.000000	n/a	n/a	n/a	2.233000
17.000000	i_88_a1.2	dec_learn	3.000000	42.000000	1.200000	88.000000	n/a	n/a	n/a	1.915000
17.000000	i_88_a1.2	dec_learn	4.000000	51.000000	1.200000	88.000000	n/a	n/a	n/a	7.643000
17.000000	i_88_a1.2	dec_learn	5.000000	59.000000	1.200000	88.000000	n/a	n/a	n/a	2.225000
17.000000	i_88_a1.2	dec_leave	6.000000	66.000000	1.200000	88.000000	1	0	6	5.767000
17.000000	i_88_a1.2	feedback	6	n/a	1.200000	88.000000	n/a	n/a	n/a	1.458000
18.000000	e_166_a1.4	dec_learn	1.000000	1.000000	1.400000	166.000000	n/a	n/a	n/a	2.074000
18.000000	e_166_a1.4	dec_learn	2.000000	3.000000	1.400000	166.000000	n/a	n/a	n/a	1.345000
18.000000	e_166_a1.4	dec_learn	3.000000	5.000000	1.400000	166.000000	n/a	n/a	n/a	1.377000
18.000000	e_166_a1.4	dec_learn	4.000000	9.000000	1.400000	166.000000	n/a	n/a	n/a	1.370000
18.000000	e_166_a1.4	dec_learn	5.000000	13.000000	1.400000	166.000000	n/a	n/a	n/a	1.733000
18.000000	e_166_a1.4	dec_leave	6.000000	19.000000	1.400000	166.000000	0	0	0	1.916000
18.000000	e_166_a1.4	feedback	6	n/a	1.400000	166.000000	n/a	n/a	n/a	1.202000
19.000000	i_113_a1.2	dec_learn	1.000000	21.000000	1.200000	113.000000	n/a	n/a	n/a	1.834000
19.000000	i_113_a1.2	dec_learn	2.000000	39.000000	1.200000	113.000000	n/a	n/a	n/a	1.269000
19.000000	i_113_a1.2	dec_learn	3.000000	53.000000	1.200000	113.000000	n/a	n/a	n/a	1.270000
19.000000	i_113_a1.2	dec_learn	4.000000	66.000000	1.200000	113.000000	n/a	n/a	n/a	1.397000
19.000000	i_113_a1.2	dec_learn	5.000000	76.000000	1.200000	113.000000	n/a	n/a	n/a	1.437000
19.000000	i_113_a1.2	dec_stay	6.000000	84.000000	1.200000	113.000000	1	1	6	2.676000
19.000000	i_113_a1.2	feedback	6	n/a	1.200000	113.000000	n/a	n/a	n/a	1.612000
20.000000	i_113_a1.2	dec_learn	1.000000	21.000000	1.200000	113.000000	n/a	n/a	n/a	3.426000
20.000000	i_113_a1.2	dec_learn	2.000000	39.000000	1.200000	113.000000	n/a	n/a	n/a	1.503000
20.000000	i_113_a1.2	dec_learn	3.000000	53.000000	1.200000	113.000000	n/a	n/a	n/a	1.352000
20.000000	i_113_a1.2	dec_learn	4.000000	66.000000	1.200000	113.000000	n/a	n/a	n/a	1.448000
20.000000	i_113_a1.2	dec_learn	5.000000	76.000000	1.200000	113.000000	n/a	n/a	n/a	1.905000
20.000000	i_113_a1.2	dec_stay	6.000000	84.000000	1.200000	113.000000	1	1	6	4.590000
20.000000	i_113_a1.2	feedback	6	n/a	1.200000	113.000000	n/a	n/a	n/a	1.391000
21.000000	e_166_a1.4	dec_learn	1.000000	1.000000	1.400000	166.000000	n/a	n/a	n/a	2.016000
21.000000	e_166_a1.4	dec_learn	2.000000	3.000000	1.400000	166.000000	n/a	n/a	n/a	1.234000
21.000000	e_166_a1.4	dec_learn	3.000000	5.000000	1.400000	166.000000	n/a	n/a	n/a	2.377000
21.000000	e_166_a1.4	dec_learn	4.000000	9.000000	1.400000	166.000000	n/a	n/a	n/a	1.698000
21.000000	e_166_a1.4	dec_learn	5.000000	13.000000	1.400000	166.000000	n/a	n/a	n/a	2.316000
21.000000	e_166_a1.4	dec_leave	6.000000	19.000000	1.400000	166.000000	0	0	0	3.032000
21.000000	e_166_a1.4	feedback	6	n/a	1.400000	166.000000	n/a	n/a	n/a	1.157000
22.000000	i_116_a1.4	dec_learn	1.000000	34.000000	1.400000	116.000000	n/a	n/a	n/a	25.744000
22.000000	i_116_a1.4	dec_learn	2.000000	58.000000	1.400000	116.000000	n/a	n/a	n/a	1.641000
22.000000	i_116_a1.4	dec_learn	3.000000	75.000000	1.400000	116.000000	n/a	n/a	n/a	1.486000
22.000000	i_116_a1.4	dec_stay	4.000000	87.000000	1.400000	116.000000	1	1	7	1.327000
22.000000	i_116_a1.4	feedback	4	n/a	1.400000	116.000000	n/a	n/a	n/a	1.539000
23.000000	i_84_a1.4	dec_learn	1.000000	25.000000	1.400000	84.000000	n/a	n/a	n/a	2.355000
23.000000	i_84_a1.4	dec_learn	2.000000	42.000000	1.400000	84.000000	n/a	n/a	n/a	1.925000
23.000000	i_84_a1.4	dec_learn	3.000000	55.000000	1.400000	84.000000	n/a	n/a	n/a	1.900000
23.000000	i_84_a1.4	dec_learn	4.000000	64.000000	1.400000	84.000000	n/a	n/a	n/a	1.801000
23.000000	i_84_a1.4	dec_stay	5.000000	70.000000	1.400000	84.000000	0	1	0	1.904000
23.000000	i_84_a1.4	feedback	5	n/a	1.400000	84.000000	n/a	n/a	n/a	1.382000
24.000000	e_78_a1.2	dec_learn	1.000000	2.000000	1.200000	78.000000	n/a	n/a	n/a	2.091000
24.000000	e_78_a1.2	dec_learn	2.000000	4.000000	1.200000	78.000000	n/a	n/a	n/a	1.434000
24.000000	e_78_a1.2	dec_learn	3.000000	7.000000	1.200000	78.000000	n/a	n/a	n/a	1.342000
24.000000	e_78_a1.2	dec_learn	4.000000	11.000000	1.200000	78.000000	n/a	n/a	n/a	1.494000
24.000000	e_78_a1.2	dec_learn	5.000000	15.000000	1.200000	78.000000	n/a	n/a	n/a	2.335000
24.000000	e_78_a1.2	dec_leave	6.000000	20.000000	1.200000	78.000000	1	0	6	2.612000
24.000000	e_78_a1.2	feedback	6	n/a	1.200000	78.000000	n/a	n/a	n/a	1.487000
