block	trial_type	phase	turn	tokens	alpha	final_value	correct	stay	earnings	response_time
1.000000	i_88_a1.2	dec_learn	1.000000	16.000000	1.200000	88.000000	n/a	n/a	n/a	3.492000
1.000000	i_88_a1.2	dec_learn	2.000000	30.000000	1.200000	88.000000	n/a	n/a	n/a	3.438000
1.000000	i_88_a1.2	dec_stay	3.000000	42.000000	1.200000	88.000000	0	1	0	1.345000
1.000000	i_88_a1.2	feedback	3	n/a	1.200000	88.000000	n/a	n/a	n/a	3.531000
2.000000	e_78_a1.2	dec_learn	1.000000	2.000000	1.200000	78.000000	n/a	n/a	n/a	2.016000
2.000000	e_78_a1.2	dec_learn	2.000000	4.000000	1.200000	78.000000	n/a	n/a	n/a	0.890000
2.000000	e_78_a1.2	dec_learn	3.000000	7.000000	1.200000	78.000000	n/a	n/a	n/a	1.099000
2.000000	e_78_a1.2	dec_leave	4.000000	11.000000	1.200000	78.000000	1	0	7	1.616000
2.000000	e_78_a1.2	feedback	4	n/a	1.200000	78.000000	n/a	n/a	n/a	1.740000
3.000000	e_59_a1.4	dec_stay	1.000000	0.000000	1.400000	59.000000	0	1	0	1.649000
3.000000	e_59_a1.4	feedback	1	n/a	1.400000	59.000000	n/a	n/a	n/a	1.494000
4.000000	i_116_a1.4	dec_learn	1.000000	34.000000	1.400000	116.000000	n/a	n/a	n/a	2.353000
4.000000	i_116_a1.4	dec_stay	2.000000	58.000000	1.400000	116.000000	1	1	8	1.261000
4.000000	i_116_a1.4	feedback	2	n/a	1.400000	116.000000	n/a	n/a	n/a	0.971000
5.000000	e_59_a1.4	dec_learn	1.000000	0.000000	1.400000	59.000000	n/a	n/a	n/a	1.586000
5.000000	e_59_a1.4	dec_learn	2.000000	1.000000	1.400000	59.000000	n/a	n/a	n/a	0.952000
5.000000	e_59_a1.4	dec_leave	3.000000	2.000000	1.400000	59.000000	1	0	7.5	1.678000
5.000000	e_59_a1.4	feedback	3	n/a	1.400000	59.000000	n/a	n/a	n/a	0.704000
6.000000	i_84_a1.4	dec_learn	1.000000	25.000000	1.400000	84.000000	n/a	n/a	n/a	2.488000
6.000000	i_84_a1.4	dec_learn	2.000000	42.000000	1.400000	84.000000	n/a	n/a	n/a	1.119000
6.000000	i_84_a1.4	dec_learn	3.000000	55.000000	1.400000	84.000000	n/a	n/a	n/a	1.984000
6.000000	i_84_a1.4	dec_learn	4.000000	64.000000	1.400000	84.000000	n/a	n/a	n/a	1.571000
6.000000	i_84_a1.4	dec_leave	5.000000	70.000000	1.400000	84.000000	1	0	6.5	2.665000
6.000000	i_84_a1.4	feedback	5	n/a	1.400000	84.000000	n/a	n/a	n/a	1.256000
7.000000	e_166_a1.4	dec_learn	1.000000	1.000000	1.400000	166.000000	n/a	n/a	n/a	2.488000
7.000000	e_166_a1.4	dec_learn	2.000000	3.000000	1.400000	166.000000	n/a	n/a	n/a	3.651000
7.000000	e_166_a1.4	dec_leave	3.000000	5.000000	1.400000	166.000000	0	0	0	1.960000
7.000000	e_166_a1.4	feedback	3	n/a	1.400000	166.000000	n/a	n/a	n/a	3.669000
8.000000	e_127_a1.2	dec_learn	1.000000	3.000000	1.200000	127.000000	n/a	n/a	n/a	1.734000
8.000000	e_127_a1.2	dec_learn	2.000000	7.000000	1.200000	127.000000	n/a	n/a	n/a	0.912000
8.000000	e_127_a1.2	dec_learn	3.000000	12.000000	1.200000	127.000000	n/a	n/a	n/a	0.813000
8.000000	e_127_a1.2	dec_learn	4.000000	17.000000	1.200000	127.000000	n/a	n/a	n/a	1.036000
8.000000	e_127_a1.2	dec_leave	5.000000	24.000000	1.200000	127.000000	0	0	0	1.301000
8.000000	e_127_a1.2	feedback	5	n/a	1.200000	127.000000	n/a	n/a	n/a	1.592000
9.000000	i_116_a1.4	dec_stay	1.000000	34.000000	1.400000	116.000000	1	1	8.5	4.465000
9.000000	i_116_a1.4	feedback	1	n/a	1.400000	116.000000	n/a	n/a	n/a	1.519000
10.000000	e_78_a1.2	dec_learn	1.000000	2.000000	1.200000	78.000000	n/a	n/a	n/a	2.218000
10.000000	e_78_a1.2	dec_learn	2.000000	4.000000	1.200000	78.000000	n/a	n/a	n/a	1.021000
10.000000	e_78_a1.2	dec_learn	3.000000	7.000000	1.200000	78.000000	n/a	n/a	n/a	0.701000
10.000000	e_78_a1.2	dec_learn	4.000000	11.000000	1.200000	78.000000	n/a	n/a	n/a	0.793000
10.000000	e_78_a1.2	dec_stay	5.000000	15.000000	1.200000	78.000000	0	1	0	3.621000
10.000000	e_78_a1.2	feedback	5	n/a	1.200000	78.000000	n/a	n/a	n/a	0.776000
11.000000	i_88_a1.2	dec_learn	1.000000	16.000000	1.200000	88.000000	n/a	n/a	n/a	1.422000
11.000000	i_88_a1.2	dec_learn	2.000000	30.000000	1.200000	88.000000	n/a	n/a	n/a	0.817000
11.000000	i_88_a1.2	dec_stay	3.000000	42.000000	1.200000	88.000000	0	1	0	1.994000
11.000000	i_88_a1.2	feedback	3	n/a	1.200000	88.000000	n/a	n/a	n/a	2.193000
12.000000	e_127_a1.2	dec_learn	1.000000	3.000000	1.200000	127.000000	n/a	n/a	n/a	1.577000
12.000000	e_127_a1.2	dec_learn	2.000000	7.000000	1.200000	127.000000	n/a	n/a	n/a	0.753000
12.000000	e_127_a1.2	dec_leave	3.000000	12.000000	1.200000	127.000000	0	0	0	0.707000
12.000000	e_127_a1.2	feedback	3	n/a	1.200000	127.000000	n/a	n/a	n/a	0.663000
13.000000	i_84_a1.4	dec_learn	1.000000	25.000000	1.400000	84.000000	n/a	n/a	n/a	0.898000
13.000000	i_84_a1.4	dec_stay	2.000000	42.000000	1.400000	84.000000	0	1	0	1.646000
13.000000	i_84_a1.4	feedback	2	n/a	1.400000	84.000000	n/a	n/a	n/a	0.618000
14.000000	i_116_a1.4	dec_learn	1.000000	34.000000	1.400000	116.000000	n/a	n/a	n/a	1.616000
14.000000	i_116_a1.4	dec_learn	2.000000	58.000000	1.400000	116.000000	n/a	n/a	n/a	0.566000
14.000000	i_116_a1.4	dec_stay	3.000000	75.000000	1.400000	116.000000	1	1	7.5	1.043000
14.000000	i_116_a1.4	feedback	3	n/a	1.400000	116.000000	n/a	n/a	n/a	0.740000
15.000000	i_113_a1.2	dec_learn	1.000000	21.000000	1.200000	113.000000	n/a	n/a	n/a	1.439000
15.000000	i_113_a1.2	dec_learn	2.000000	39.000000	1.200000	113.000000	n/a	n/a	n/a	0.731000
15.000000	i_113_a1.2	dec_learn	3.000000	53.000000	1.200000	113.000000	n/a	n/a	n/a	0.539000
15.000000	i_113_a1.2	dec_learn	4.000000	66.000000	1.200000	113.000000	n/a	n/a	n/a	0.727000
15.000000	i_113_a1.2	dec_leave	5.000000	76.000000	1.200000	113.000000	0	0	0	2.293000
15.000000	i_113_a1.2	feedback	5	n/a	1.200000	113.000000	n/a	n/a	n/a	1.469000
16.000000	e_166_a1.4	dec_learn	1.000000	1.000000	1.400000	166.000000	n/a	n/a	n/a	1.108000
16.000000	e_166_a1.4	dec_learn	2.000000	3.000000	1.400000	166.000000	n/a	n/a	n/a	0.895000
16.000000	e_166_a1.4	dec_learn	3.000000	5.000000	1.400000	166.000000	n/a	n/a	n/a	0.939000
16.000000	e_166_a1.4	dec_learn	4.000000	9.000000	1.400000	166.000000	n/a	n/a	n/a	0.615000
16.000000	e_166_a1.4	dec_learn	5.000000	13.000000	1.400000	166.000000	n/a	n/a	n/a	0.724000
16.000000	e_166_a1.4	dec_leave	6.000000	19.000000	1.400000	166.000000	0	0	0	4.195000
16.000000	e_166_a1.4	feedback	6	n/a	1.400000	166.000000	n/a	n/a	n/a	4.313000
17.000000	e_127_a1.2	dec_learn	1.000000	3.000000	1.200000	127.000000	n/a	n/a	n/a	2.209000
17.000000	e_127_a1.2	dec_learn	2.000000	7.000000	1.200000	127.000000	n/a	n/a	n/a	0.612000
17.000000	e_127_a1.2	dec_learn	3.000000	12.000000	1.200000	127.000000	n/a	n/a	n/a	0.604000
17.000000	e_127_a1.2	dec_learn	4.000000	17.000000	1.200000	127.000000	n/a	n/a	n/a	1.039000
17.000000	e_127_a1.2	dec_stay	5.000000	24.000000	1.200000	127.000000	1	1	6.5	3.138000
17.000000	e_127_a1.2	feedback	5	n/a	1.200000	127.000000	n/a	n/a	n/a	0.722000
18.000000	e_78_a1.2	dec_learn	1.000000	2.000000	1.200000	78.000000	n/a	n/a	n/a	1.258000
18.000000	e_78_a1.2	dec_learn	2.000000	4.000000	1.200000	78.000000	n/a	n/a	n/a	1.465000
18.000000	e_78_a1.2	dec_learn	3.000000	7.000000	1.200000	78.000000	n/a	n/a	n/a	1.893000
18.000000	e_78_a1.2	dec_learn	4.000000	11.000000	1.200000	78.000000	n/a	n/a	n/a	0.664000
18.000000	e_78_a1.2	dec_leave	5.000000	15.000000	1.200000	78.000000	1	0	6.5	1.522000
18.000000	e_78_a1.2	feedback	5	n/a	1.200000	78.000000	n/a	n/a	n/a	0.723000
19.000000	i_113_a1.2	dec_stay	1.000000	21.000000	1.200000	113.000000	1	1	8.5	1.481000
19.000000	i_113_a1.2	feedback	1	n/a	1.200000	113.000000	n/a	n/a	n/a	0.675000
20.000000	i_88_a1.2	dec_learn	1.000000	16.000000	1.200000	88.000000	n/a	n/a	n/a	1.207000
20.000000	i_88_a1.2	dec_stay	2.000000	30.000000	1.200000	88.000000	0	1	0	2.596000
20.000000	i_88_a1.2	feedback	2	n/a	1.200000	88.000000	n/a	n/a	n/a	1.129000
21.000000	i_84_a1.4	dec_learn	1.000000	25.000000	1.400000	84.000000	n/a	n/a	n/a	1.501000
21.000000	i_84_a1.4	dec_learn	2.000000	42.000000	1.400000	84.000000	n/a	n/a	n/a	0.607000
21.000000	i_84_a1.4	dec_learn	3.000000	55.000000	1.400000	84.000000	n/a	n/a	n/a	0.552000
21.000000	i_84_a1.4	dec_stay	4.000000	64.000000	1.400000	84.000000	0	1	0	1.033000
21.000000	i_84_a1.4	feedback	4	n/a	1.400000	84.000000	n/a	n/a	n/a	0.617000
22.000000	e_59_a1.4	dec_learn	1.000000	0.000000	1.400000	59.000000	n/a	n/a	n/a	0.913000
22.000000	e_59_a1.4	dec_learn	2.000000	1.000000	1.400000	59.000000	n/a	n/a	n/a	0.518000
22.000000	e_59_a1.4	dec_learn	3.000000	2.000000	1.400000	59.000000	n/a	n/a	n/a	0.449000
22.000000	e_59_a1.4	dec_learn	4.000000	3.000000	1.400000	59.000000	n/a	n/a	n/a	0.483000
22.000000	e_59_a1.4	dec_leave	5.000000	5.000000	1.400000	59.000000	1	0	6.5	0.951000
22.000000	e_59_a1.4	feedback	5	n/a	1.400000	59.000000	n/a	n/a	n/a	0.643000
23.000000	e_166_a1.4	dec_learn	1.000000	1.000000	1.400000	166.000000	n/a	n/a	n/a	2.589000
23.000000	e_166_a1.4	dec_learn	2.000000	3.000000	1.400000	166.000000	n/a	n/a	n/a	0.596000
23.000000	e_166_a1.4	dec_learn	3.000000	5.000000	1.400000	166.000000	n/a	n/a	n/a	0.484000
23.000000	e_166_a1.4	dec_leave	4.000000	9.000000	1.400000	166.000000	0	0	0	0.543000
23.000000	e_166_a1.4	feedback	4	n/a	1.400000	166.000000	n/a	n/a	n/a	3.431000
24.000000	i_113_a1.2	dec_learn	1.000000	21.000000	1.200000	113.000000	n/a	n/a	n/a	1.933000
24.000000	i_113_a1.2	dec_learn	2.000000	39.000000	1.200000	113.000000	n/a	n/a	n/a	0.955000
24.000000	i_113_a1.2	dec_stay	3.000000	53.000000	1.200000	113.000000	1	1	7.5	0.757000
24.000000	i_113_a1.2	feedback	3	n/a	1.200000	113.000000	n/a	n/a	n/a	0.705000
