block	trial_type	phase	turn	tokens	alpha	final_value	correct	stay	earnings	response_time
1.000000	i_116_a1.4	dec_stay	1.000000	34.000000	1.400000	116.000000	1	1	8.5	7.903
1.000000	i_116_a1.4	feedback	1	n/a	1.400000	116.000000	n/a	n/a	n/a	7.081
2.000000	i_116_a1.4	dec_stay	1.000000	34.000000	1.400000	116.000000	1	1	8.5	12.044
2.000000	i_116_a1.4	feedback	1	n/a	1.400000	116.000000	n/a	n/a	n/a	5.303
3.000000	i_84_a1.4	dec_learn	1.000000	25.000000	1.400000	84.000000	n/a	n/a	n/a	12.183
3.000000	i_84_a1.4	dec_stay	2.000000	42.000000	1.400000	84.000000	0	1	0	27.369
3.000000	i_84_a1.4	feedback	2	n/a	1.400000	84.000000	n/a	n/a	n/a	2.832
4.000000	i_113_a1.2	dec_learn	1.000000	21.000000	1.200000	113.000000	n/a	n/a	n/a	3.988
4.000000	i_113_a1.2	dec_learn	2.000000	39.000000	1.200000	113.000000	n/a	n/a	n/a	9.66
4.000000	i_113_a1.2	dec_stay	3.000000	53.000000	1.200000	113.000000	1	1	7.5	4.239
4.000000	i_113_a1.2	feedback	3	n/a	1.200000	113.000000	n/a	n/a	n/a	5.001
5.000000	i_88_a1.2	dec_learn	1.000000	16.000000	1.200000	88.000000	n/a	n/a	n/a	12.828
5.000000	i_88_a1.2	dec_leave	2.000000	30.000000	1.200000	88.000000	1	0	8	2.986
5.000000	i_88_a1.2	feedback	2	n/a	1.200000	88.000000	n/a	n/a	n/a	3.941
6.000000	i_88_a1.2	dec_learn	1.000000	16.000000	1.200000	88.000000	n/a	n/a	n/a	3.903
6.000000	i_88_a1.2	dec_learn	2.000000	30.000000	1.200000	88.000000	n/a	n/a	n/a	7.3
6.000000	i_88_a1.2	dec_leave	3.000000	42.000000	1.200000	88.000000	1	0	7.5	6.37
6.000000	i_88_a1.2	feedback	3	n/a	1.200000	88.000000	n/a	n/a	n/a	2.542
7.000000	e_127_a1.2	dec_leave	1.000000	3.000000	1.200000	127.000000	0	0	0	11.069
7.000000	e_127_a1.2	feedback	1	n/a	1.200000	127.000000	n/a	n/a	n/a	1.763
8.000000	i_84_a1.4	dec_learn	1.000000	25.000000	1.400000	84.000000	n/a	n/a	n/a	5.562
8.000000	i_84_a1.4	dec_learn	2.000000	42.000000	1.400000	84.000000	n/a	n/a	n/a	8.438
8.000000	i_84_a1.4	dec_learn	3.000000	55.000000	1.400000	84.000000	n/a	n/a	n/a	8.401
8.000000	i_84_a1.4	dec_leave	4.000000	64.000000	1.400000	84.000000	1	0	7	3.772
8.000000	i_84_a1.4	feedback	4	n/a	1.400000	84.000000	n/a	n/a	n/a	2.476
9.000000	e_78_a1.2	dec_learn	1.000000	2.000000	1.200000	78.000000	n/a	n/a	n/a	6.217
9.000000	e_78_a1.2	dec_learn	2.000000	4.000000	1.200000	78.000000	n/a	n/a	n/a	4.301
9.000000	e_78_a1.2	dec_leave	3.000000	7.000000	1.200000	78.000000	1	0	7.5	1.549
9.000000	e_78_a1.2	feedback	3	n/a	1.200000	78.000000	n/a	n/a	n/a	1.58
10.000000	e_59_a1.4	dec_learn	1.000000	0.000000	1.400000	59.000000	n/a	n/a	n/a	4.469
10.000000	e_59_a1.4	dec_learn	2.000000	1.000000	1.400000	59.000000	n/a	n/a	n/a	4.101
10.000000	e_59_a1.4	dec_leave	3.000000	2.000000	1.400000	59.000000	1	0	7.5	1.801
10.000000	e_59_a1.4	feedback	3	n/a	1.400000	59.000000	n/a	n/a	n/a	1
11.000000	e_166_a1.4	dec_learn	1.000000	1.000000	1.400000	166.000000	n/a	n/a	n/a	3.769
11.000000	e_166_a1.4	dec_learn	2.000000	3.000000	1.400000	166.000000	n/a	n/a	n/a	2.3
11.000000	e_166_a1.4	dec_leave	3.000000	5.000000	1.400000	166.000000	0	0	0	1.389
11.000000	e_166_a1.4	feedback	3	n/a	1.400000	166.000000	n/a	n/a	n/a	2.552
12.000000	e_59_a1.4	dec_learn	1.000000	0.000000	1.400000	59.000000	n/a	n/a	n/a	2.419
12.000000	e_59_a1.4	dec_learn	2.000000	1.000000	1.400000	59.000000	n/a	n/a	n/a	2.536
12.000000	e_59_a1.4	dec_learn	3.000000	2.000000	1.400000	59.000000	n/a	n/a	n/a	1.701
12.000000	e_59_a1.4	dec_leave	4.000000	3.000000	1.400000	59.000000	1	0	7	1.565
12.000000	e_59_a1.4	feedback	4	n/a	1.400000	59.000000	n/a	n/a	n/a	1.062
13.000000	i_84_a1.4	dec_learn	1.000000	25.000000	1.400000	84.000000	n/a	n/a	n/a	3.769
13.000000	i_84_a1.4	dec_learn	2.000000	42.000000	1.400000	84.000000	n/a	n/a	n/a	3.177
13.000000	i_84_a1.4	dec_learn	3.000000	55.000000	1.400000	84.000000	n/a	n/a	n/a	4.59
13.000000	i_84_a1.4	dec_leave	4.000000	64.000000	1.400000	84.000000	1	0	7	2.401
14.000000	i_113_a1.2	dec_learn	1.000000	21.000000	1.200000	113.000000	n/a	n/a	n/a	3.1
14.000000	i_113_a1.2	dec_learn	2.000000	39.000000	1.200000	113.000000	n/a	n/a	n/a	2.886
14.000000	i_113_a1.2	dec_learn	3.000000	53.000000	1.200000	113.000000	n/a	n/a	n/a	9.022
14.000000	i_113_a1.2	dec_stay	4.000000	66.000000	1.200000	113.000000	1	1	7	3.281
14.000000	i_113_a1.2	feedback	4	n/a	1.200000	113.000000	n/a	n/a	n/a	1.926
15.000000	i_113_a1.2	dec_learn	1.000000	21.000000	1.200000	113.000000	n/a	n/a	n/a	2.77
15.000000	i_113_a1.2	dec_learn	2.000000	39.000000	1.200000	113.000000	n/a	n/a	n/a	2.941
15.000000	i_113_a1.2	dec_learn	3.000000	53.000000	1.200000	113.000000	n/a	n/a	n/a	4.279
15.000000	i_113_a1.2	dec_stay	4.000000	66.000000	1.200000	113.000000	1	1	7	2.992
15.000000	i_113_a1.2	feedback	4	n/a	1.200000	113.000000	n/a	n/a	n/a	1.6
16.000000	e_78_a1.2	dec_learn	1.000000	2.000000	1.200000	78.000000	n/a	n/a	n/a	4.785
16.000000	e_78_a1.2	dec_learn	2.000000	4.000000	1.200000	78.000000	n/a	n/a	n/a	2.473
16.000000	e_78_a1.2	dec_learn	3.000000	7.000000	1.200000	78.000000	n/a	n/a	n/a	5.129
16.000000	e_78_a1.2	dec_learn	4.000000	11.000000	1.200000	78.000000	n/a	n/a	n/a	4.264
16.000000	e_78_a1.2	dec_leave	5.000000	15.000000	1.200000	78.000000	1	0	6.5	1.883
16.000000	e_78_a1.2	feedback	5	n/a	1.200000	78.000000	n/a	n/a	n/a	0.992
17.000000	e_166_a1.4	dec_learn	1.000000	1.000000	1.400000	166.000000	n/a	n/a	n/a	3.188
17.000000	e_166_a1.4	dec_learn	2.000000	3.000000	1.400000	166.000000	n/a	n/a	n/a	2.503
17.000000	e_166_a1.4	dec_learn	3.000000	5.000000	1.400000	166.000000	n/a	n/a	n/a	1.994
17.000000	e_166_a1.4	dec_leave	4.000000	9.000000	1.400000	166.000000	0	0	0	1.5
17.000000	e_166_a1.4	feedback	4	n/a	1.400000	166.000000	n/a	n/a	n/a	2.399
18.000000	e_59_a1.4	dec_learn	1.000000	0.000000	1.400000	59.000000	n/a	n/a	n/a	5.098
18.000000	e_59_a1.4	dec_learn	2.000000	1.000000	1.400000	59.000000	n/a	n/a	n/a	1.801
18.000000	e_59_a1.4	dec_learn	3.000000	2.000000	1.400000	59.000000	n/a	n/a	n/a	1.641
18.000000	e_59_a1.4	dec_leave	4.000000	3.000000	1.400000	59.000000	1	0	7	2.857
18.000000	e_59_a1.4	feedback	4	n/a	1.400000	59.000000	n/a	n/a	n/a	1.046
19.000000	i_116_a1.4	dec_learn	1.000000	34.000000	1.400000	116.000000	n/a	n/a	n/a	4.54
19.000000	i_116_a1.4	dec_learn	2.000000	58.000000	1.400000	116.000000	n/a	n/a	n/a	2.976
19.000000	i_116_a1.4	dec_stay	3.000000	75.000000	1.400000	116.000000	1	1	7.5	2.041
19.000000	i_116_a1.4	feedback	3	n/a	1.400000	116.000000	n/a	n/a	n/a	1.053
20.000000	e_166_a1.4	dec_learn	1.000000	1.000000	1.400000	166.000000	n/a	n/a	n/a	2.333
20.000000	e_166_a1.4	dec_learn	2.000000	3.000000	1.400000	166.000000	n/a	n/a	n/a	1.927
20.000000	e_166_a1.4	dec_learn	3.000000	5.000000	1.400000	166.000000	n/a	n/a	n/a	4.6
20.000000	e_166_a1.4	dec_learn	4.000000	9.000000	1.400000	166.000000	n/a	n/a	n/a	2.662
20.000000	e_166_a1.4	dec_leave	5.000000	13.000000	1.400000	166.000000	0	0	0	2.341
20.000000	e_166_a1.4	feedback	5	n/a	1.400000	166.000000	n/a	n/a	n/a	5.394
21.000000	e_127_a1.2	dec_learn	1.000000	3.000000	1.200000	127.000000	n/a	n/a	n/a	6.353
21.000000	e_127_a1.2	dec_learn	2.000000	7.000000	1.200000	127.000000	n/a	n/a	n/a	5.701
21.000000	e_127_a1.2	dec_leave	3.000000	12.000000	1.200000	127.000000	0	0	0	3.733
21.000000	e_127_a1.2	feedback	3	n/a	1.200000	127.000000	n/a	n/a	n/a	1.102
22.000000	e_127_a1.2	dec_learn	1.000000	3.000000	1.200000	127.000000	n/a	n/a	n/a	2.101
22.000000	e_127_a1.2	dec_learn	2.000000	7.000000	1.200000	127.000000	n/a	n/a	n/a	1.784
22.000000	e_127_a1.2	dec_learn	3.000000	12.000000	1.200000	127.000000	n/a	n/a	n/a	1.888
22.000000	e_127_a1.2	dec_learn	4.000000	17.000000	1.200000	127.000000	n/a	n/a	n/a	1.801
22.000000	e_127_a1.2	dec_stay	5.000000	24.000000	1.200000	127.000000	1	1	6.5	3.202
22.000000	e_127_a1.2	feedback	5	n/a	1.200000	127.000000	n/a	n/a	n/a	1.155
23.000000	i_88_a1.2	dec_learn	1.000000	16.000000	1.200000	88.000000	n/a	n/a	n/a	4.001
23.000000	i_88_a1.2	dec_learn	2.000000	30.000000	1.200000	88.000000	n/a	n/a	n/a	2.254
23.000000	i_88_a1.2	dec_learn	3.000000	42.000000	1.200000	88.000000	n/a	n/a	n/a	5.387
23.000000	i_88_a1.2	dec_learn	4.000000	51.000000	1.200000	88.000000	n/a	n/a	n/a	2.301
23.000000	i_88_a1.2	dec_leave	5.000000	59.000000	1.200000	88.000000	1	0	6.5	1.801
23.000000	i_88_a1.2	feedback	5	n/a	1.200000	88.000000	n/a	n/a	n/a	0.967
24.000000	e_78_a1.2	dec_learn	1.000000	2.000000	1.200000	78.000000	n/a	n/a	n/a	7.681
24.000000	e_78_a1.2	dec_learn	2.000000	4.000000	1.200000	78.000000	n/a	n/a	n/a	2.273
24.000000	e_78_a1.2	dec_learn	3.000000	7.000000	1.200000	78.000000	n/a	n/a	n/a	2.683
24.000000	e_78_a1.2	dec_learn	4.000000	11.000000	1.200000	78.000000	n/a	n/a	n/a	5.034
24.000000	e_78_a1.2	dec_leave	5.000000	15.000000	1.200000	78.000000	1	0	6.5	1.451
24.000000	e_78_a1.2	feedback	5	n/a	1.200000	78.000000	n/a	n/a	n/a	0.901
