block	trial_type	phase	turn	tokens	alpha	final_value	correct	stay	earnings	response_time
1.000000	i_84_a1.4	dec_stay	1.000000	25.000000	1.400000	84.000000	0	1	0	6.754000
1.000000	i_84_a1.4	feedback	1	n/a	1.400000	84.000000	n/a	n/a	n/a	12.534000
2.000000	e_59_a1.4	dec_stay	1.000000	0.000000	1.400000	59.000000	0	1	0	4.301000
2.000000	e_59_a1.4	feedback	1	n/a	1.400000	59.000000	n/a	n/a	n/a	4.157000
3.000000	e_166_a1.4	dec_learn	1.000000	1.000000	1.400000	166.000000	n/a	n/a	n/a	8.839000
3.000000	e_166_a1.4	dec_learn	2.000000	3.000000	1.400000	166.000000	n/a	n/a	n/a	5.118000
3.000000	e_166_a1.4	dec_stay	3.000000	5.000000	1.400000	166.000000	1	1	7.5	3.665000
3.000000	e_166_a1.4	feedback	3	n/a	1.400000	166.000000	n/a	n/a	n/a	15.202000
4.000000	e_166_a1.4	dec_leave	1.000000	1.000000	1.400000	166.000000	0	0	0	11.345000
4.000000	e_166_a1.4	feedback	1	n/a	1.400000	166.000000	n/a	n/a	n/a	7.102000
5.000000	e_166_a1.4	dec_learn	1.000000	1.000000	1.400000	166.000000	n/a	n/a	n/a	4.484000
5.000000	e_166_a1.4	dec_learn	2.000000	3.000000	1.400000	166.000000	n/a	n/a	n/a	4.954000
5.000000	e_166_a1.4	dec_stay	3.000000	5.000000	1.400000	166.000000	1	1	7.5	10.652000
5.000000	e_166_a1.4	feedback	3	n/a	1.400000	166.000000	n/a	n/a	n/a	9.788000
6.000000	e_127_a1.2	dec_learn	1.000000	3.000000	1.200000	127.000000	n/a	n/a	n/a	4.260000
6.000000	e_127_a1.2	dec_leave	2.000000	7.000000	1.200000	127.000000	0	0	0	19.266000
6.000000	e_127_a1.2	feedback	2	n/a	1.200000	127.000000	n/a	n/a	n/a	3.096000
7.000000	i_116_a1.4	dec_leave	1.000000	34.000000	1.400000	116.000000	0	0	0	6.293000
7.000000	i_116_a1.4	feedback	1	n/a	1.400000	116.000000	n/a	n/a	n/a	3.235000
8.000000	i_84_a1.4	dec_learn	1.000000	25.000000	1.400000	84.000000	n/a	n/a	n/a	5.368000
8.000000	i_84_a1.4	dec_stay	2.000000	42.000000	1.400000	84.000000	0	1	0	6.786000
8.000000	i_84_a1.4	feedback	2	n/a	1.400000	84.000000	n/a	n/a	n/a	7.664000
9.000000	e_127_a1.2	dec_stay	1.000000	3.000000	1.200000	127.000000	1	1	8.5	4.998000
9.000000	e_127_a1.2	feedback	1	n/a	1.200000	127.000000	n/a	n/a	n/a	662.966000
10.000000	i_113_a1.2	dec_leave	1.000000	21.000000	1.200000	113.000000	0	0	0	6.968000
10.000000	i_113_a1.2	feedback	1	n/a	1.200000	113.000000	n/a	n/a	n/a	3.180000
11.000000	i_113_a1.2	dec_learn	1.000000	21.000000	1.200000	113.000000	n/a	n/a	n/a	4.746000
11.000000	i_113_a1.2	dec_learn	2.000000	39.000000	1.200000	113.000000	n/a	n/a	n/a	4.466000
11.000000	i_113_a1.2	dec_learn	3.000000	53.000000	1.200000	113.000000	n/a	n/a	n/a	5.473000
11.000000	i_113_a1.2	dec_stay	4.000000	66.000000	1.200000	113.000000	1	1	7	4.166000
11.000000	i_113_a1.2	feedback	4	n/a	1.200000	113.000000	n/a	n/a	n/a	2.663000
12.000000	e_78_a1.2	dec_learn	1.000000	2.000000	1.200000	78.000000	n/a	n/a	n/a	7.117000
12.000000	e_78_a1.2	dec_learn	2.000000	4.000000	1.200000	78.000000	n/a	n/a	n/a	5.899000
12.000000	e_78_a1.2	dec_leave	3.000000	7.000000	1.200000	78.000000	1	0	7.5	5.302000
12.000000	e_78_a1.2	feedback	3	n/a	1.200000	78.000000	n/a	n/a	n/a	2.861000
13.000000	e_78_a1.2	dec_learn	1.000000	2.000000	1.200000	78.000000	n/a	n/a	n/a	4.596000
13.000000	e_78_a1.2	dec_learn	2.000000	4.000000	1.200000	78.000000	n/a	n/a	n/a	3.213000
13.000000	e_78_a1.2	dec_learn	3.000000	7.000000	1.200000	78.000000	n/a	n/a	n/a	3.729000
13.000000	e_78_a1.2	dec_learn	4.000000	11.000000	1.200000	78.000000	n/a	n/a	n/a	3.805000
13.000000	e_78_a1.2	dec_leave	5.000000	15.000000	1.200000	78.000000	1	0	6.5	3.000000
13.000000	e_78_a1.2	feedback	5	n/a	1.200000	78.000000	n/a	n/a	n/a	2.841000
14.000000	i_113_a1.2	dec_learn	1.000000	21.000000	1.200000	113.000000	n/a	n/a	n/a	3.733000
14.000000	i_113_a1.2	dec_learn	2.000000	39.000000	1.200000	113.000000	n/a	n/a	n/a	3.622000
14.000000	i_113_a1.2	dec_learn	3.000000	53.000000	1.200000	113.000000	n/a	n/a	n/a	3.349000
14.000000	i_113_a1.2	dec_stay	4.000000	66.000000	1.200000	113.000000	1	1	7	4.229000
14.000000	i_113_a1.2	feedback	4	n/a	1.200000	113.000000	n/a	n/a	n/a	2.344000
15.000000	e_59_a1.4	dec_learn	1.000000	0.000000	1.400000	59.000000	n/a	n/a	n/a	4.772000
15.000000	e_59_a1.4	dec_learn	2.000000	1.000000	1.400000	59.000000	n/a	n/a	n/a	2.801000
15.000000	e_59_a1.4	dec_learn	3.000000	2.000000	1.400000	59.000000	n/a	n/a	n/a	3.252000
15.000000	e_59_a1.4	dec_leave	4.000000	3.000000	1.400000	59.000000	1	0	7	3.001000
15.000000	e_59_a1.4	feedback	4	n/a	1.400000	59.000000	n/a	n/a	n/a	7.848000
16.000000	e_78_a1.2	dec_learn	1.000000	2.000000	1.200000	78.000000	n/a	n/a	n/a	4.412000
16.000000	e_78_a1.2	dec_learn	2.000000	4.000000	1.200000	78.000000	n/a	n/a	n/a	5.256000
16.000000	e_78_a1.2	dec_leave	3.000000	7.000000	1.200000	78.000000	1	0	7.5	3.065000
16.000000	e_78_a1.2	feedback	3	n/a	1.200000	78.000000	n/a	n/a	n/a	2.117000
17.000000	i_88_a1.2	dec_learn	1.000000	16.000000	1.200000	88.000000	n/a	n/a	n/a	3.912000
17.000000	i_88_a1.2	dec_learn	2.000000	30.000000	1.200000	88.000000	n/a	n/a	n/a	3.233000
17.000000	i_88_a1.2	dec_stay	3.000000	42.000000	1.200000	88.000000	0	1	0	5.840000
17.000000	i_88_a1.2	feedback	3	n/a	1.200000	88.000000	n/a	n/a	n/a	16.350000
18.000000	e_127_a1.2	dec_learn	1.000000	3.000000	1.200000	127.000000	n/a	n/a	n/a	3.346000
18.000000	e_127_a1.2	dec_learn	2.000000	7.000000	1.200000	127.000000	n/a	n/a	n/a	3.129000
18.000000	e_127_a1.2	dec_learn	3.000000	12.000000	1.200000	127.000000	n/a	n/a	n/a	3.219000
18.000000	e_127_a1.2	dec_learn	4.000000	17.000000	1.200000	127.000000	n/a	n/a	n/a	3.062000
18.000000	e_127_a1.2	dec_learn	5.000000	24.000000	1.200000	127.000000	n/a	n/a	n/a	4.217000
18.000000	e_127_a1.2	dec_leave	6.000000	32.000000	1.200000	127.000000	0	0	0	4.402000
18.000000	e_127_a1.2	feedback	6	n/a	1.200000	127.000000	n/a	n/a	n/a	4.036000
19.000000	i_116_a1.4	dec_stay	1.000000	34.000000	1.400000	116.000000	1	1	8.5	5.085000
19.000000	i_116_a1.4	feedback	1	n/a	1.400000	116.000000	n/a	n/a	n/a	2.560000
20.000000	i_88_a1.2	dec_learn	1.000000	16.000000	1.200000	88.000000	n/a	n/a	n/a	4.319000
20.000000	i_88_a1.2	dec_learn	2.000000	30.000000	1.200000	88.000000	n/a	n/a	n/a	2.798000
20.000000	i_88_a1.2	dec_learn	3.000000	42.000000	1.200000	88.000000	n/a	n/a	n/a	3.684000
20.000000	i_88_a1.2	dec_stay	4.000000	51.000000	1.200000	88.000000	0	1	0	6.280000
20.000000	i_88_a1.2	feedback	4	n/a	1.200000	88.000000	n/a	n/a	n/a	2.463000
21.000000	i_88_a1.2	dec_learn	1.000000	16.000000	1.200000	88.000000	n/a	n/a	n/a	3.157000
21.000000	i_88_a1.2	dec_learn	2.000000	30.000000	1.200000	88.000000	n/a	n/a	n/a	2.601000
21.000000	i_88_a1.2	dec_learn	3.000000	42.000000	1.200000	88.000000	n/a	n/a	n/a	2.902000
21.000000	i_88_a1.2	dec_stay	4.000000	51.000000	1.200000	88.000000	0	1	0	3.879000
21.000000	i_88_a1.2	feedback	4	n/a	1.200000	88.000000	n/a	n/a	n/a	2.238000
22.000000	i_116_a1.4	dec_stay	1.000000	34.000000	1.400000	116.000000	1	1	8.5	3.796000
22.000000	i_116_a1.4	feedback	1	n/a	1.400000	116.000000	n/a	n/a	n/a	2.101000
23.000000	i_84_a1.4	dec_stay	1.000000	25.000000	1.400000	84.000000	0	1	0	3.849000
23.000000	i_84_a1.4	feedback	1	n/a	1.400000	84.000000	n/a	n/a	n/a	1.944000
24.000000	e_59_a1.4	dec_learn	1.000000	0.000000	1.400000	59.000000	n/a	n/a	n/a	2.786000
24.000000	e_59_a1.4	dec_learn	2.000000	1.000000	1.400000	59.000000	n/a	n/a	n/a	2.768000
24.000000	e_59_a1.4	dec_learn	3.000000	2.000000	1.400000	59.000000	n/a	n/a	n/a	2.342000
24.000000	e_59_a1.4	dec_leave	4.000000	3.000000	1.400000	59.000000	1	0	7	3.753000
24.000000	e_59_a1.4	feedback	4	n/a	1.400000	59.000000	n/a	n/a	n/a	3.752000
