block	trial_type	phase	turn	tokens	alpha	final_value	correct	stay	earnings	response_time
1.000000	i_88_a1.2	dec_learn	1.000000	16.000000	1.200000	88.000000	n/a	n/a	n/a	8.791000
1.000000	i_88_a1.2	dec_stay	2.000000	30.000000	1.200000	88.000000	0	1	0	3.324000
1.000000	i_88_a1.2	feedback	2	n/a	1.200000	88.000000	n/a	n/a	n/a	15.892000
2.000000	i_113_a1.2	dec_learn	1.000000	21.000000	1.200000	113.000000	n/a	n/a	n/a	7.715000
2.000000	i_113_a1.2	dec_learn	2.000000	39.000000	1.200000	113.000000	n/a	n/a	n/a	5.823000
2.000000	i_113_a1.2	dec_learn	3.000000	53.000000	1.200000	113.000000	n/a	n/a	n/a	7.122000
2.000000	i_113_a1.2	dec_stay	4.000000	66.000000	1.200000	113.000000	1	1	7	3.756000
2.000000	i_113_a1.2	feedback	4	n/a	1.200000	113.000000	n/a	n/a	n/a	6.749000
3.000000	e_59_a1.4	dec_learn	1.000000	0.000000	1.400000	59.000000	n/a	n/a	n/a	10.932000
3.000000	e_59_a1.4	dec_leave	2.000000	1.000000	1.400000	59.000000	1	0	8	4.469000
3.000000	e_59_a1.4	feedback	2	n/a	1.400000	59.000000	n/a	n/a	n/a	9.302000
4.000000	i_84_a1.4	dec_learn	1.000000	25.000000	1.400000	84.000000	n/a	n/a	n/a	5.240000
4.000000	i_84_a1.4	dec_learn	2.000000	42.000000	1.400000	84.000000	n/a	n/a	n/a	3.883000
4.000000	i_84_a1.4	dec_stay	3.000000	55.000000	1.400000	84.000000	0	1	0	3.594000
5.000000	i_116_a1.4	dec_learn	1.000000	34.000000	1.400000	116.000000	n/a	n/a	n/a	5.339000
5.000000	i_116_a1.4	dec_learn	2.000000	58.000000	1.400000	116.000000	n/a	n/a	n/a	3.518000
5.000000	i_116_a1.4	dec_learn	3.000000	75.000000	1.400000	116.000000	n/a	n/a	n/a	5.837000
5.000000	i_116_a1.4	dec_stay	4.000000	87.000000	1.400000	116.000000	1	1	7	2.901000
5.000000	i_116_a1.4	feedback	4	n/a	1.400000	116.000000	n/a	n/a	n/a	3.769000
6.000000	e_166_a1.4	dec_leave	1.000000	1.000000	1.400000	166.000000	0	0	0	4.252000
6.000000	e_166_a1.4	feedback	1	n/a	1.400000	166.000000	n/a	n/a	n/a	6.501000
7.000000	e_166_a1.4	dec_learn	1.000000	1.000000	1.400000	166.000000	n/a	n/a	n/a	3.510000
7.000000	e_166_a1.4	dec_learn	2.000000	3.000000	1.400000	166.000000	n/a	n/a	n/a	7.729000
7.000000	e_166_a1.4	dec_leave	3.000000	5.000000	1.400000	166.000000	0	0	0	5.781000
7.000000	e_166_a1.4	feedback	3	n/a	1.400000	166.000000	n/a	n/a	n/a	7.572000
8.000000	i_116_a1.4	dec_learn	1.000000	34.000000	1.400000	116.000000	n/a	n/a	n/a	4.997000
8.000000	i_116_a1.4	dec_learn	2.000000	58.000000	1.400000	116.000000	n/a	n/a	n/a	4.402000
8.000000	i_116_a1.4	dec_stay	3.000000	75.000000	1.400000	116.000000	1	1	7.5	4.072000
8.000000	i_116_a1.4	feedback	3	n/a	1.400000	116.000000	n/a	n/a	n/a	5.241000
9.000000	e_59_a1.4	dec_learn	1.000000	0.000000	1.400000	59.000000	n/a	n/a	n/a	5.447000
9.000000	e_59_a1.4	dec_learn	2.000000	1.000000	1.400000	59.000000	n/a	n/a	n/a	2.414000
9.000000	e_59_a1.4	dec_learn	3.000000	2.000000	1.400000	59.000000	n/a	n/a	n/a	4.253000
9.000000	e_59_a1.4	dec_stay	4.000000	3.000000	1.400000	59.000000	0	1	0	9.067000
10.000000	i_84_a1.4	dec_learn	1.000000	25.000000	1.400000	84.000000	n/a	n/a	n/a	12.157000
10.000000	i_84_a1.4	dec_learn	2.000000	42.000000	1.400000	84.000000	n/a	n/a	n/a	3.215000
10.000000	i_84_a1.4	dec_learn	3.000000	55.000000	1.400000	84.000000	n/a	n/a	n/a	2.369000
10.000000	i_84_a1.4	dec_stay	4.000000	64.000000	1.400000	84.000000	0	1	0	3.198000
10.000000	i_84_a1.4	feedback	4	n/a	1.400000	84.000000	n/a	n/a	n/a	8.261000
11.000000	e_78_a1.2	dec_learn	1.000000	2.000000	1.200000	78.000000	n/a	n/a	n/a	4.633000
11.000000	e_78_a1.2	dec_learn	2.000000	4.000000	1.200000	78.000000	n/a	n/a	n/a	2.170000
11.000000	e_78_a1.2	dec_stay	3.000000	7.000000	1.200000	78.000000	0	1	0	4.140000
11.000000	e_78_a1.2	feedback	3	n/a	1.200000	78.000000	n/a	n/a	n/a	7.301000
12.000000	i_88_a1.2	dec_learn	1.000000	16.000000	1.200000	88.000000	n/a	n/a	n/a	3.677000
12.000000	i_88_a1.2	dec_learn	2.000000	30.000000	1.200000	88.000000	n/a	n/a	n/a	2.349000
12.000000	i_88_a1.2	dec_learn	3.000000	42.000000	1.200000	88.000000	n/a	n/a	n/a	3.474000
12.000000	i_88_a1.2	dec_stay	4.000000	51.000000	1.200000	88.000000	0	1	0	3.992000
12.000000	i_88_a1.2	feedback	4	n/a	1.200000	88.000000	n/a	n/a	n/a	2.581000
13.000000	i_84_a1.4	dec_leave	1.000000	25.000000	1.400000	84.000000	1	0	8.5	7.635000
13.000000	i_84_a1.4	feedback	1	n/a	1.400000	84.000000	n/a	n/a	n/a	6.390000
14.000000	e_127_a1.2	dec_stay	1.000000	3.000000	1.200000	127.000000	1	1	8.5	6.065000
14.000000	e_127_a1.2	feedback	1	n/a	1.200000	127.000000	n/a	n/a	n/a	4.899000
15.000000	e_127_a1.2	dec_stay	1.000000	3.000000	1.200000	127.000000	1	1	8.5	3.837000
15.000000	e_127_a1.2	feedback	1	n/a	1.200000	127.000000	n/a	n/a	n/a	4.901000
16.000000	e_166_a1.4	dec_stay	1.000000	1.000000	1.400000	166.000000	1	1	8.5	3.625000
16.000000	e_166_a1.4	feedback	1	n/a	1.400000	166.000000	n/a	n/a	n/a	5.075000
17.000000	e_78_a1.2	dec_stay	1.000000	2.000000	1.200000	78.000000	0	1	0	2.967000
17.000000	e_78_a1.2	feedback	1	n/a	1.200000	78.000000	n/a	n/a	n/a	3.401000
18.000000	i_113_a1.2	dec_leave	1.000000	21.000000	1.200000	113.000000	0	0	0	3.522000
18.000000	i_113_a1.2	feedback	1	n/a	1.200000	113.000000	n/a	n/a	n/a	2.062000
19.000000	e_78_a1.2	dec_leave	1.000000	2.000000	1.200000	78.000000	1	0	8.5	3.534000
19.000000	e_78_a1.2	feedback	1	n/a	1.200000	78.000000	n/a	n/a	n/a	3.453000
20.000000	i_88_a1.2	dec_stay	1.000000	16.000000	1.200000	88.000000	0	1	0	6.501000
20.000000	i_88_a1.2	feedback	1	n/a	1.200000	88.000000	n/a	n/a	n/a	2.300000
21.000000	e_127_a1.2	dec_stay	1.000000	3.000000	1.200000	127.000000	1	1	8.5	4.709000
21.000000	e_127_a1.2	feedback	1	n/a	1.200000	127.000000	n/a	n/a	n/a	3.591000
22.000000	e_59_a1.4	dec_learn	1.000000	0.000000	1.400000	59.000000	n/a	n/a	n/a	13.089000
22.000000	e_59_a1.4	dec_learn	2.000000	1.000000	1.400000	59.000000	n/a	n/a	n/a	3.241000
22.000000	e_59_a1.4	dec_leave	3.000000	2.000000	1.400000	59.000000	1	0	7.5	2.501000
22.000000	e_59_a1.4	feedback	3	n/a	1.400000	59.000000	n/a	n/a	n/a	3.940000
23.000000	i_113_a1.2	dec_stay	1.000000	21.000000	1.200000	113.000000	1	1	8.5	5.238000
23.000000	i_113_a1.2	feedback	1	n/a	1.200000	113.000000	n/a	n/a	n/a	4.463000
24.000000	i_116_a1.4	dec_learn	1.000000	34.000000	1.400000	116.000000	n/a	n/a	n/a	7.671000
24.000000	i_116_a1.4	dec_stay	2.000000	58.000000	1.400000	116.000000	1	1	8	4.738000
24.000000	i_116_a1.4	feedback	2	n/a	1.400000	116.000000	n/a	n/a	n/a	5.436000
