block	trial_type	phase	turn	tokens	alpha	final_value	correct	stay	earnings	response_time
1.000000	e_166_a1.4	dec_leave	1.000000	1.000000	1.400000	166.000000	0	0	0	1.4
1.000000	e_166_a1.4	feedback	1	n/a	1.400000	166.000000	n/a	n/a	n/a	1.001
2.000000	i_113_a1.2	dec_leave	1.000000	21.000000	1.200000	113.000000	0	0	0	1.301
2.000000	i_113_a1.2	feedback	1	n/a	1.200000	113.000000	n/a	n/a	n/a	1.201
3.000000	i_113_a1.2	dec_stay	1.000000	21.000000	1.200000	113.000000	1	1	8.5	1.359
3.000000	i_113_a1.2	feedback	1	n/a	1.200000	113.000000	n/a	n/a	n/a	1.2
4.000000	e_78_a1.2	dec_stay	1.000000	2.000000	1.200000	78.000000	0	1	0	1.301
4.000000	e_78_a1.2	feedback	1	n/a	1.200000	78.000000	n/a	n/a	n/a	1.082
5.000000	e_59_a1.4	dec_leave	1.000000	0.000000	1.400000	59.000000	1	0	8.5	1.397
5.000000	e_59_a1.4	feedback	1	n/a	1.400000	59.000000	n/a	n/a	n/a	3.195
6.000000	e_127_a1.2	dec_stay	1.000000	3.000000	1.200000	127.000000	1	1	8.5	2.002
6.000000	e_127_a1.2	feedback	1	n/a	1.200000	127.000000	n/a	n/a	n/a	0.901
7.000000	i_116_a1.4	dec_leave	1.000000	34.000000	1.400000	116.000000	0	0	0	2.101
7.000000	i_116_a1.4	feedback	1	n/a	1.400000	116.000000	n/a	n/a	n/a	0.989
8.000000	e_166_a1.4	dec_stay	1.000000	1.000000	1.400000	166.000000	1	1	8.5	1.401
8.000000	e_166_a1.4	feedback	1	n/a	1.400000	166.000000	n/a	n/a	n/a	1.001
9.000000	i_113_a1.2	dec_stay	1.000000	21.000000	1.200000	113.000000	1	1	8.5	1.583
9.000000	i_113_a1.2	feedback	1	n/a	1.200000	113.000000	n/a	n/a	n/a	1.083
10.000000	i_88_a1.2	dec_learn	1.000000	16.000000	1.200000	88.000000	n/a	n/a	n/a	1.972
10.000000	i_88_a1.2	dec_learn	2.000000	30.000000	1.200000	88.000000	n/a	n/a	n/a	1.168
10.000000	i_88_a1.2	dec_learn	3.000000	42.000000	1.200000	88.000000	n/a	n/a	n/a	0.905
10.000000	i_88_a1.2	dec_leave	4.000000	51.000000	1.200000	88.000000	1	0	7	0.801
10.000000	i_88_a1.2	feedback	4	n/a	1.200000	88.000000	n/a	n/a	n/a	1.08
11.000000	i_84_a1.4	dec_learn	1.000000	25.000000	1.400000	84.000000	n/a	n/a	n/a	1.502
11.000000	i_84_a1.4	dec_stay	2.000000	42.000000	1.400000	84.000000	0	1	0	1.001
11.000000	i_84_a1.4	feedback	2	n/a	1.400000	84.000000	n/a	n/a	n/a	0.88
12.000000	i_84_a1.4	dec_learn	1.000000	25.000000	1.400000	84.000000	n/a	n/a	n/a	1.482
12.000000	i_84_a1.4	dec_learn	2.000000	42.000000	1.400000	84.000000	n/a	n/a	n/a	1.3
12.000000	i_84_a1.4	dec_learn	3.000000	55.000000	1.400000	84.000000	n/a	n/a	n/a	1.101
12.000000	i_84_a1.4	dec_stay	4.000000	64.000000	1.400000	84.000000	0	1	0	0.894
12.000000	i_84_a1.4	feedback	4	n/a	1.400000	84.000000	n/a	n/a	n/a	0.902
13.000000	e_59_a1.4	dec_learn	1.000000	0.000000	1.400000	59.000000	n/a	n/a	n/a	1.381
13.000000	e_59_a1.4	dec_learn	2.000000	1.000000	1.400000	59.000000	n/a	n/a	n/a	1.183
13.000000	e_59_a1.4	dec_stay	3.000000	2.000000	1.400000	59.000000	0	1	0	1.102
13.000000	e_59_a1.4	feedback	3	n/a	1.400000	59.000000	n/a	n/a	n/a	0.901
14.000000	e_166_a1.4	dec_leave	1.000000	1.000000	1.400000	166.000000	0	0	0	1.401
14.000000	e_166_a1.4	feedback	1	n/a	1.400000	166.000000	n/a	n/a	n/a	1.08
15.000000	e_127_a1.2	dec_leave	1.000000	3.000000	1.200000	127.000000	0	0	0	1.401
15.000000	e_127_a1.2	feedback	1	n/a	1.200000	127.000000	n/a	n/a	n/a	0.903
16.000000	e_59_a1.4	dec_stay	1.000000	0.000000	1.400000	59.000000	0	1	0	1.301
16.000000	e_59_a1.4	feedback	1	n/a	1.400000	59.000000	n/a	n/a	n/a	0.901
17.000000	e_127_a1.2	dec_leave	1.000000	3.000000	1.200000	127.000000	0	0	0	1.294
17.000000	e_127_a1.2	feedback	1	n/a	1.200000	127.000000	n/a	n/a	n/a	0.801
18.000000	i_116_a1.4	dec_stay	1.000000	34.000000	1.400000	116.000000	1	1	8.5	1.2
18.000000	i_116_a1.4	feedback	1	n/a	1.400000	116.000000	n/a	n/a	n/a	1.071
19.000000	e_78_a1.2	dec_stay	1.000000	2.000000	1.200000	78.000000	0	1	0	2.001
19.000000	e_78_a1.2	feedback	1	n/a	1.200000	78.000000	n/a	n/a	n/a	0.995
20.000000	i_116_a1.4	dec_learn	1.000000	34.000000	1.400000	116.000000	n/a	n/a	n/a	1.301
20.000000	i_116_a1.4	dec_learn	2.000000	58.000000	1.400000	116.000000	n/a	n/a	n/a	1.594
20.000000	i_116_a1.4	dec_learn	3.000000	75.000000	1.400000	116.000000	n/a	n/a	n/a	1.582
20.000000	i_116_a1.4	dec_learn	4.000000	87.000000	1.400000	116.000000	n/a	n/a	n/a	1.301
20.000000	i_116_a1.4	dec_learn	5.000000	96.000000	1.400000	116.000000	n/a	n/a	n/a	1.4
20.000000	i_116_a1.4	dec_leave	6.000000	102.000000	1.400000	116.000000	0	0	0	1.201
20.000000	i_116_a1.4	feedback	6	n/a	1.400000	116.000000	n/a	n/a	n/a	0.901
21.000000	i_88_a1.2	dec_leave	1.000000	16.000000	1.200000	88.000000	1	0	8.5	1.801
21.000000	i_88_a1.2	feedback	1	n/a	1.200000	88.000000	n/a	n/a	n/a	1.1
22.000000	i_88_a1.2	dec_leave	1.000000	16.000000	1.200000	88.000000	1	0	8.5	1.682
22.000000	i_88_a1.2	feedback	1	n/a	1.200000	88.000000	n/a	n/a	n/a	1.001
23.000000	i_84_a1.4	dec_stay	1.000000	25.000000	1.400000	84.000000	0	1	0	2.099
23.000000	i_84_a1.4	feedback	1	n/a	1.400000	84.000000	n/a	n/a	n/a	0.898
24.000000	e_78_a1.2	dec_learn	1.000000	2.000000	1.200000	78.000000	n/a	n/a	n/a	10.701
24.000000	e_78_a1.2	dec_learn	2.000000	4.000000	1.200000	78.000000	n/a	n/a	n/a	1.301
24.000000	e_78_a1.2	dec_learn	3.000000	7.000000	1.200000	78.000000	n/a	n/a	n/a	1.803
24.000000	e_78_a1.2	dec_learn	4.000000	11.000000	1.200000	78.000000	n/a	n/a	n/a	1.301
24.000000	e_78_a1.2	dec_learn	5.000000	15.000000	1.200000	78.000000	n/a	n/a	n/a	1.387
24.000000	e_78_a1.2	dec_leave	6.000000	20.000000	1.200000	78.000000	1	0	6	1.301
24.000000	e_78_a1.2	feedback	6	n/a	1.200000	78.000000	n/a	n/a	n/a	1.295
