block	trial_type	phase	turn	tokens	alpha	final_value	correct	stay	earnings	response_time
1.000000	e_127_a1.2	dec_learn	1.000000	3.000000	1.200000	127.000000	n/a	n/a	n/a	1.360000
1.000000	e_127_a1.2	dec_learn	2.000000	7.000000	1.200000	127.000000	n/a	n/a	n/a	0.649000
1.000000	e_127_a1.2	dec_learn	3.000000	12.000000	1.200000	127.000000	n/a	n/a	n/a	0.827000
1.000000	e_127_a1.2	dec_learn	4.000000	17.000000	1.200000	127.000000	n/a	n/a	n/a	0.668000
1.000000	e_127_a1.2	dec_learn	5.000000	24.000000	1.200000	127.000000	n/a	n/a	n/a	1.429000
1.000000	e_127_a1.2	dec_stay	6.000000	32.000000	1.200000	127.000000	1	1	6	2.238000
1.000000	e_127_a1.2	feedback	6	n/a	1.200000	127.000000	n/a	n/a	n/a	1.206000
2.000000	e_166_a1.4	dec_learn	1.000000	1.000000	1.400000	166.000000	n/a	n/a	n/a	2.714000
2.000000	e_166_a1.4	dec_learn	2.000000	3.000000	1.400000	166.000000	n/a	n/a	n/a	0.858000
2.000000	e_166_a1.4	dec_learn	3.000000	5.000000	1.400000	166.000000	n/a	n/a	n/a	0.803000
2.000000	e_166_a1.4	dec_learn	4.000000	9.000000	1.400000	166.000000	n/a	n/a	n/a	0.636000
2.000000	e_166_a1.4	dec_learn	5.000000	13.000000	1.400000	166.000000	n/a	n/a	n/a	18.262000
2.000000	e_166_a1.4	dec_stay	6.000000	19.000000	1.400000	166.000000	1	1	6	1.531000
2.000000	e_166_a1.4	feedback	6	n/a	1.400000	166.000000	n/a	n/a	n/a	0.922000
3.000000	i_113_a1.2	dec_learn	1.000000	21.000000	1.200000	113.000000	n/a	n/a	n/a	1.930000
3.000000	i_113_a1.2	dec_learn	2.000000	39.000000	1.200000	113.000000	n/a	n/a	n/a	0.852000
3.000000	i_113_a1.2	dec_learn	3.000000	53.000000	1.200000	113.000000	n/a	n/a	n/a	0.798000
3.000000	i_113_a1.2	dec_learn	4.000000	66.000000	1.200000	113.000000	n/a	n/a	n/a	0.504000
3.000000	i_113_a1.2	dec_learn	5.000000	76.000000	1.200000	113.000000	n/a	n/a	n/a	1.547000
3.000000	i_113_a1.2	dec_stay	6.000000	84.000000	1.200000	113.000000	1	1	6	1.880000
3.000000	i_113_a1.2	feedback	6	n/a	1.200000	113.000000	n/a	n/a	n/a	1.022000
4.000000	i_113_a1.2	dec_learn	1.000000	21.000000	1.200000	113.000000	n/a	n/a	n/a	1.325000
4.000000	i_113_a1.2	dec_learn	2.000000	39.000000	1.200000	113.000000	n/a	n/a	n/a	1.659000
4.000000	i_113_a1.2	dec_learn	3.000000	53.000000	1.200000	113.000000	n/a	n/a	n/a	1.020000
4.000000	i_113_a1.2	dec_learn	4.000000	66.000000	1.200000	113.000000	n/a	n/a	n/a	0.636000
4.000000	i_113_a1.2	dec_learn	5.000000	76.000000	1.200000	113.000000	n/a	n/a	n/a	0.481000
4.000000	i_113_a1.2	dec_stay	6.000000	84.000000	1.200000	113.000000	1	1	6	2.101000
4.000000	i_113_a1.2	feedback	6	n/a	1.200000	113.000000	n/a	n/a	n/a	1.000000
5.000000	e_166_a1.4	dec_learn	1.000000	1.000000	1.400000	166.000000	n/a	n/a	n/a	2.209000
5.000000	e_166_a1.4	dec_learn	2.000000	3.000000	1.400000	166.000000	n/a	n/a	n/a	0.687000
5.000000	e_166_a1.4	dec_learn	3.000000	5.000000	1.400000	166.000000	n/a	n/a	n/a	0.759000
5.000000	e_166_a1.4	dec_learn	4.000000	9.000000	1.400000	166.000000	n/a	n/a	n/a	0.697000
5.000000	e_166_a1.4	dec_learn	5.000000	13.000000	1.400000	166.000000	n/a	n/a	n/a	1.549000
5.000000	e_166_a1.4	dec_stay	6.000000	19.000000	1.400000	166.000000	1	1	6	2.208000
5.000000	e_166_a1.4	feedback	6	n/a	1.400000	166.000000	n/a	n/a	n/a	0.943000
6.000000	i_116_a1.4	dec_learn	1.000000	34.000000	1.400000	116.000000	n/a	n/a	n/a	1.976000
6.000000	i_116_a1.4	dec_learn	2.000000	58.000000	1.400000	116.000000	n/a	n/a	n/a	0.896000
6.000000	i_116_a1.4	dec_learn	3.000000	75.000000	1.400000	116.000000	n/a	n/a	n/a	0.975000
6.000000	i_116_a1.4	dec_learn	4.000000	87.000000	1.400000	116.000000	n/a	n/a	n/a	0.763000
6.000000	i_116_a1.4	dec_learn	5.000000	87.000000	1.400000	116.000000	n/a	n/a	n/a	1.267000
6.000000	i_116_a1.4	dec_stay	6.000000	102.000000	1.400000	116.000000	1	1	6	2.061000
6.000000	i_116_a1.4	feedback	6	n/a	1.400000	116.000000	n/a	n/a	n/a	1.087000
7.000000	i_88_a1.2	dec_learn	1.000000	16.000000	1.200000	88.000000	n/a	n/a	n/a	2.646000
7.000000	i_88_a1.2	dec_learn	2.000000	30.000000	1.200000	88.000000	n/a	n/a	n/a	1.158000
7.000000	i_88_a1.2	dec_learn	3.000000	42.000000	1.200000	88.000000	n/a	n/a	n/a	1.322000
7.000000	i_88_a1.2	dec_learn	4.000000	51.000000	1.200000	88.000000	n/a	n/a	n/a	0.872000
7.000000	i_88_a1.2	dec_learn	5.000000	59.000000	1.200000	88.000000	n/a	n/a	n/a	0.772000
7.000000	i_88_a1.2	dec_stay	6.000000	66.000000	1.200000	88.000000	0	1	0	1.528000
7.000000	i_88_a1.2	feedback	6	n/a	1.200000	88.000000	n/a	n/a	n/a	2.028000
8.000000	i_84_a1.4	dec_leave	1.000000	25.000000	1.400000	84.000000	1	0	8.5	2.407000
8.000000	i_84_a1.4	feedback	1	n/a	1.400000	84.000000	n/a	n/a	n/a	0.874000
9.000000	i_88_a1.2	dec_leave	1.000000	16.000000	1.200000	88.000000	1	0	8.5	3.498000
9.000000	i_88_a1.2	feedback	1	n/a	1.200000	88.000000	n/a	n/a	n/a	0.800000
10.000000	e_59_a1.4	dec_leave	1.000000	0.000000	1.400000	59.000000	1	0	8.5	1.400000
10.000000	e_59_a1.4	feedback	1	n/a	1.400000	59.000000	n/a	n/a	n/a	0.877000
11.000000	i_84_a1.4	dec_leave	1.000000	25.000000	1.400000	84.000000	1	0	8.5	1.094000
11.000000	i_84_a1.4	feedback	1	n/a	1.400000	84.000000	n/a	n/a	n/a	0.861000
12.000000	i_116_a1.4	dec_leave	1.000000	34.000000	1.400000	116.000000	0	0	0	1.366000
12.000000	i_116_a1.4	feedback	1	n/a	1.400000	116.000000	n/a	n/a	n/a	2.513000
13.000000	e_59_a1.4	dec_learn	1.000000	0.000000	1.400000	59.000000	n/a	n/a	n/a	5.433000
13.000000	e_59_a1.4	dec_learn	2.000000	1.000000	1.400000	59.000000	n/a	n/a	n/a	1.686000
13.000000	e_59_a1.4	dec_learn	3.000000	2.000000	1.400000	59.000000	n/a	n/a	n/a	0.801000
13.000000	e_59_a1.4	dec_learn	4.000000	3.000000	1.400000	59.000000	n/a	n/a	n/a	0.978000
13.000000	e_59_a1.4	dec_learn	5.000000	5.000000	1.400000	59.000000	n/a	n/a	n/a	1.100000
13.000000	e_59_a1.4	dec_leave	6.000000	7.000000	1.400000	59.000000	1	0	6	1.868000
13.000000	e_59_a1.4	feedback	6	n/a	1.400000	59.000000	n/a	n/a	n/a	0.913000
14.000000	e_78_a1.2	dec_stay	1.000000	2.000000	1.200000	78.000000	0	1	0	5.252000
14.000000	e_78_a1.2	feedback	1	n/a	1.200000	78.000000	n/a	n/a	n/a	0.737000
15.000000	e_166_a1.4	dec_leave	1.000000	1.000000	1.400000	166.000000	0	0	0	1.929000
15.000000	e_166_a1.4	feedback	1	n/a	1.400000	166.000000	n/a	n/a	n/a	0.857000
16.000000	i_84_a1.4	dec_learn	1.000000	25.000000	1.400000	84.000000	n/a	n/a	n/a	1.031000
16.000000	i_84_a1.4	dec_learn	2.000000	42.000000	1.400000	84.000000	n/a	n/a	n/a	0.613000
16.000000	i_84_a1.4	dec_learn	3.000000	55.000000	1.400000	84.000000	n/a	n/a	n/a	0.906000
16.000000	i_84_a1.4	dec_learn	4.000000	64.000000	1.400000	84.000000	n/a	n/a	n/a	0.599000
16.000000	i_84_a1.4	dec_learn	5.000000	70.000000	1.400000	84.000000	n/a	n/a	n/a	1.080000
16.000000	i_84_a1.4	dec_leave	6.000000	75.000000	1.400000	84.000000	1	0	6	1.233000
16.000000	i_84_a1.4	feedback	6	n/a	1.400000	84.000000	n/a	n/a	n/a	0.788000
17.000000	e_127_a1.2	dec_learn	1.000000	3.000000	1.200000	127.000000	n/a	n/a	n/a	2.724000
17.000000	e_127_a1.2	dec_learn	2.000000	7.000000	1.200000	127.000000	n/a	n/a	n/a	0.651000
17.000000	e_127_a1.2	dec_learn	3.000000	12.000000	1.200000	127.000000	n/a	n/a	n/a	1.540000
17.000000	e_127_a1.2	dec_learn	4.000000	17.000000	1.200000	127.000000	n/a	n/a	n/a	1.669000
17.000000	e_127_a1.2	dec_learn	5.000000	24.000000	1.200000	127.000000	n/a	n/a	n/a	0.898000
17.000000	e_127_a1.2	dec_leave	6.000000	32.000000	1.200000	127.000000	0	0	0	3.764000
17.000000	e_127_a1.2	feedback	6	n/a	1.200000	127.000000	n/a	n/a	n/a	0.852000
18.000000	e_59_a1.4	dec_stay	1.000000	0.000000	1.400000	59.000000	0	1	0	1.909000
18.000000	e_59_a1.4	feedback	1	n/a	1.400000	59.000000	n/a	n/a	n/a	0.600000
19.000000	i_113_a1.2	dec_leave	1.000000	21.000000	1.200000	113.000000	0	0	0	1.107000
19.000000	i_113_a1.2	feedback	1	n/a	1.200000	113.000000	n/a	n/a	n/a	0.766000
20.000000	i_88_a1.2	dec_learn	1.000000	16.000000	1.200000	88.000000	n/a	n/a	n/a	1.379000
20.000000	i_88_a1.2	dec_learn	2.000000	30.000000	1.200000	88.000000	n/a	n/a	n/a	0.900000
20.000000	i_88_a1.2	dec_learn	3.000000	42.000000	1.200000	88.000000	n/a	n/a	n/a	1.107000
20.000000	i_88_a1.2	dec_learn	4.000000	51.000000	1.200000	88.000000	n/a	n/a	n/a	0.983000
20.000000	i_88_a1.2	dec_learn	5.000000	59.000000	1.200000	88.000000	n/a	n/a	n/a	1.465000
20.000000	i_88_a1.2	dec_stay	6.000000	66.000000	1.200000	88.000000	0	1	0	1.900000
20.000000	i_88_a1.2	feedback	6	n/a	1.200000	88.000000	n/a	n/a	n/a	0.701000
21.000000	e_127_a1.2	dec_leave	1.000000	3.000000	1.200000	127.000000	0	0	0	1.996000
21.000000	e_127_a1.2	feedback	1	n/a	1.200000	127.000000	n/a	n/a	n/a	0.965000
22.000000	e_78_a1.2	dec_learn	1.000000	2.000000	1.200000	78.000000	n/a	n/a	n/a	1.045000
22.000000	e_78_a1.2	dec_learn	2.000000	4.000000	1.200000	78.000000	n/a	n/a	n/a	1.025000
22.000000	e_78_a1.2	dec_learn	3.000000	7.000000	1.200000	78.000000	n/a	n/a	n/a	0.668000
22.000000	e_78_a1.2	dec_learn	4.000000	11.000000	1.200000	78.000000	n/a	n/a	n/a	0.662000
22.000000	e_78_a1.2	dec_learn	5.000000	15.000000	1.200000	78.000000	n/a	n/a	n/a	0.862000
22.000000	e_78_a1.2	dec_stay	6.000000	20.000000	1.200000	78.000000	0	1	0	1.337000
22.000000	e_78_a1.2	feedback	6	n/a	1.200000	78.000000	n/a	n/a	n/a	0.837000
23.000000	i_116_a1.4	dec_leave	1.000000	34.000000	1.400000	116.000000	0	0	0	1.683000
23.000000	i_116_a1.4	feedback	1	n/a	1.400000	116.000000	n/a	n/a	n/a	0.842000
24.000000	e_78_a1.2	dec_learn	1.000000	2.000000	1.200000	78.000000	n/a	n/a	n/a	1.882000
24.000000	e_78_a1.2	dec_learn	2.000000	4.000000	1.200000	78.000000	n/a	n/a	n/a	0.737000
24.000000	e_78_a1.2	dec_learn	3.000000	7.000000	1.200000	78.000000	n/a	n/a	n/a	0.768000
24.000000	e_78_a1.2	dec_learn	4.000000	11.000000	1.200000	78.000000	n/a	n/a	n/a	0.600000
24.000000	e_78_a1.2	dec_learn	5.000000	15.000000	1.200000	78.000000	n/a	n/a	n/a	0.691000
24.000000	e_78_a1.2	dec_leave	6.000000	20.000000	1.200000	78.000000	1	0	6	1.300000
24.000000	e_78_a1.2	feedback	6	n/a	1.200000	78.000000	n/a	n/a	n/a	0.987000
