block	trial_type	phase	turn	tokens	alpha	final_value	correct	stay	earnings	response_time
1.000000	i_116_a1.4	dec_learn	1.000000	34.000000	1.400000	116.000000	n/a	n/a	n/a	2.895000
1.000000	i_116_a1.4	dec_learn	2.000000	58.000000	1.400000	116.000000	n/a	n/a	n/a	0.699000
1.000000	i_116_a1.4	dec_learn	3.000000	75.000000	1.400000	116.000000	n/a	n/a	n/a	0.611000
1.000000	i_116_a1.4	dec_stay	4.000000	87.000000	1.400000	116.000000	1	1	7	0.454000
1.000000	i_116_a1.4	feedback	4	n/a	1.400000	116.000000	n/a	n/a	n/a	1.228000
2.000000	e_78_a1.2	dec_learn	1.000000	2.000000	1.200000	78.000000	n/a	n/a	n/a	0.799000
2.000000	e_78_a1.2	dec_learn	2.000000	4.000000	1.200000	78.000000	n/a	n/a	n/a	0.470000
2.000000	e_78_a1.2	dec_learn	3.000000	7.000000	1.200000	78.000000	n/a	n/a	n/a	0.475000
2.000000	e_78_a1.2	dec_learn	4.000000	11.000000	1.200000	78.000000	n/a	n/a	n/a	0.486000
2.000000	e_78_a1.2	dec_learn	5.000000	15.000000	1.200000	78.000000	n/a	n/a	n/a	0.565000
2.000000	e_78_a1.2	dec_leave	6.000000	20.000000	1.200000	78.000000	1	0	6	1.730000
2.000000	e_78_a1.2	feedback	6	n/a	1.200000	78.000000	n/a	n/a	n/a	1.291000
3.000000	e_127_a1.2	dec_learn	1.000000	3.000000	1.200000	127.000000	n/a	n/a	n/a	1.253000
3.000000	e_127_a1.2	dec_learn	2.000000	7.000000	1.200000	127.000000	n/a	n/a	n/a	0.654000
3.000000	e_127_a1.2	dec_learn	3.000000	12.000000	1.200000	127.000000	n/a	n/a	n/a	0.571000
3.000000	e_127_a1.2	dec_learn	4.000000	17.000000	1.200000	127.000000	n/a	n/a	n/a	0.534000
3.000000	e_127_a1.2	dec_learn	5.000000	24.000000	1.200000	127.000000	n/a	n/a	n/a	0.824000
3.000000	e_127_a1.2	dec_stay	6.000000	32.000000	1.200000	127.000000	1	1	6	6.084000
3.000000	e_127_a1.2	feedback	6	n/a	1.200000	127.000000	n/a	n/a	n/a	1.209000
4.000000	i_113_a1.2	dec_learn	1.000000	21.000000	1.200000	113.000000	n/a	n/a	n/a	0.939000
4.000000	i_113_a1.2	dec_learn	2.000000	39.000000	1.200000	113.000000	n/a	n/a	n/a	0.560000
4.000000	i_113_a1.2	dec_learn	3.000000	53.000000	1.200000	113.000000	n/a	n/a	n/a	0.579000
4.000000	i_113_a1.2	dec_learn	4.000000	66.000000	1.200000	113.000000	n/a	n/a	n/a	0.965000
4.000000	i_113_a1.2	dec_learn	5.000000	76.000000	1.200000	113.000000	n/a	n/a	n/a	0.601000
4.000000	i_113_a1.2	dec_stay	6.000000	84.000000	1.200000	113.000000	1	1	6	2.312000
4.000000	i_113_a1.2	feedback	6	n/a	1.200000	113.000000	n/a	n/a	n/a	1.273000
5.000000	e_127_a1.2	dec_learn	1.000000	3.000000	1.200000	127.000000	n/a	n/a	n/a	0.882000
5.000000	e_127_a1.2	dec_learn	2.000000	7.000000	1.200000	127.000000	n/a	n/a	n/a	0.641000
5.000000	e_127_a1.2	dec_learn	3.000000	12.000000	1.200000	127.000000	n/a	n/a	n/a	0.665000
5.000000	e_127_a1.2	dec_leave	4.000000	17.000000	1.200000	127.000000	0	0	0	0.496000
5.000000	e_127_a1.2	feedback	4	n/a	1.200000	127.000000	n/a	n/a	n/a	1.174000
6.000000	i_88_a1.2	dec_learn	1.000000	16.000000	1.200000	88.000000	n/a	n/a	n/a	0.774000
6.000000	i_88_a1.2	dec_learn	2.000000	30.000000	1.200000	88.000000	n/a	n/a	n/a	0.593000
6.000000	i_88_a1.2	dec_learn	3.000000	42.000000	1.200000	88.000000	n/a	n/a	n/a	0.514000
6.000000	i_88_a1.2	dec_learn	4.000000	51.000000	1.200000	88.000000	n/a	n/a	n/a	0.601000
6.000000	i_88_a1.2	dec_learn	5.000000	59.000000	1.200000	88.000000	n/a	n/a	n/a	1.256000
6.000000	i_88_a1.2	dec_leave	6.000000	66.000000	1.200000	88.000000	1	0	6	1.240000
6.000000	i_88_a1.2	feedback	6	n/a	1.200000	88.000000	n/a	n/a	n/a	1.296000
7.000000	i_116_a1.4	dec_learn	1.000000	34.000000	1.400000	116.000000	n/a	n/a	n/a	0.783000
7.000000	i_116_a1.4	dec_learn	2.000000	58.000000	1.400000	116.000000	n/a	n/a	n/a	1.359000
7.000000	i_116_a1.4	dec_learn	3.000000	75.000000	1.400000	116.000000	n/a	n/a	n/a	0.701000
7.000000	i_116_a1.4	dec_learn	4.000000	87.000000	1.400000	116.000000	n/a	n/a	n/a	0.747000
7.000000	i_116_a1.4	dec_stay	5.000000	96.000000	1.400000	116.000000	1	1	6.5	3.390000
7.000000	i_116_a1.4	feedback	5	n/a	1.400000	116.000000	n/a	n/a	n/a	1.295000
8.000000	i_84_a1.4	dec_learn	1.000000	25.000000	1.400000	84.000000	n/a	n/a	n/a	23.704000
8.000000	i_84_a1.4	dec_learn	2.000000	42.000000	1.400000	84.000000	n/a	n/a	n/a	0.576000
8.000000	i_84_a1.4	dec_stay	3.000000	55.000000	1.400000	84.000000	0	1	0	0.657000
9.000000	e_166_a1.4	dec_learn	1.000000	1.000000	1.400000	166.000000	n/a	n/a	n/a	0.827000
9.000000	e_166_a1.4	dec_learn	2.000000	3.000000	1.400000	166.000000	n/a	n/a	n/a	0.612000
9.000000	e_166_a1.4	dec_leave	3.000000	5.000000	1.400000	166.000000	0	0	0	1.114000
9.000000	e_166_a1.4	feedback	3	n/a	1.400000	166.000000	n/a	n/a	n/a	1.075000
10.000000	e_166_a1.4	dec_learn	1.000000	1.000000	1.400000	166.000000	n/a	n/a	n/a	2.509000
10.000000	e_166_a1.4	dec_stay	2.000000	3.000000	1.400000	166.000000	1	1	8	0.617000
10.000000	e_166_a1.4	feedback	2	n/a	1.400000	166.000000	n/a	n/a	n/a	1.238000
11.000000	e_166_a1.4	dec_learn	1.000000	1.000000	1.400000	166.000000	n/a	n/a	n/a	0.716000
11.000000	e_166_a1.4	dec_learn	2.000000	3.000000	1.400000	166.000000	n/a	n/a	n/a	0.379000
11.000000	e_166_a1.4	dec_leave	3.000000	5.000000	1.400000	166.000000	0	0	0	1.479000
11.000000	e_166_a1.4	feedback	3	n/a	1.400000	166.000000	n/a	n/a	n/a	1.224000
12.000000	i_113_a1.2	dec_learn	1.000000	21.000000	1.200000	113.000000	n/a	n/a	n/a	0.757000
12.000000	i_113_a1.2	dec_learn	2.000000	39.000000	1.200000	113.000000	n/a	n/a	n/a	1.821000
12.000000	i_113_a1.2	dec_learn	3.000000	53.000000	1.200000	113.000000	n/a	n/a	n/a	0.617000
12.000000	i_113_a1.2	dec_stay	4.000000	66.000000	1.200000	113.000000	1	1	7	1.719000
12.000000	i_113_a1.2	feedback	4	n/a	1.200000	113.000000	n/a	n/a	n/a	2.522000
13.000000	e_78_a1.2	dec_learn	1.000000	2.000000	1.200000	78.000000	n/a	n/a	n/a	1.476000
13.000000	e_78_a1.2	dec_learn	2.000000	4.000000	1.200000	78.000000	n/a	n/a	n/a	2.360000
13.000000	e_78_a1.2	dec_learn	3.000000	7.000000	1.200000	78.000000	n/a	n/a	n/a	1.486000
13.000000	e_78_a1.2	dec_learn	4.000000	11.000000	1.200000	78.000000	n/a	n/a	n/a	2.189000
13.000000	e_78_a1.2	dec_learn	5.000000	15.000000	1.200000	78.000000	n/a	n/a	n/a	2.004000
13.000000	e_78_a1.2	dec_stay	6.000000	20.000000	1.200000	78.000000	0	1	0	1.752000
13.000000	e_78_a1.2	feedback	6	n/a	1.200000	78.000000	n/a	n/a	n/a	1.169000
14.000000	i_88_a1.2	dec_learn	1.000000	16.000000	1.200000	88.000000	n/a	n/a	n/a	0.833000
14.000000	i_88_a1.2	dec_learn	2.000000	30.000000	1.200000	88.000000	n/a	n/a	n/a	0.513000
14.000000	i_88_a1.2	dec_stay	3.000000	42.000000	1.200000	88.000000	0	1	0	0.709000
14.000000	i_88_a1.2	feedback	3	n/a	1.200000	88.000000	n/a	n/a	n/a	2.252000
15.000000	i_88_a1.2	dec_learn	1.000000	16.000000	1.200000	88.000000	n/a	n/a	n/a	0.937000
15.000000	i_88_a1.2	dec_learn	2.000000	30.000000	1.200000	88.000000	n/a	n/a	n/a	1.842000
15.000000	i_88_a1.2	dec_stay	3.000000	42.000000	1.200000	88.000000	0	1	0	4.057000
15.000000	i_88_a1.2	feedback	3	n/a	1.200000	88.000000	n/a	n/a	n/a	1.280000
16.000000	i_84_a1.4	dec_leave	1.000000	25.000000	1.400000	84.000000	1	0	8.5	1.654000
16.000000	i_84_a1.4	feedback	1	n/a	1.400000	84.000000	n/a	n/a	n/a	1.322000
17.000000	i_113_a1.2	dec_leave	1.000000	21.000000	1.200000	113.000000	0	0	0	1.120000
17.000000	i_113_a1.2	feedback	1	n/a	1.200000	113.000000	n/a	n/a	n/a	1.859000
18.000000	e_59_a1.4	dec_learn	1.000000	0.000000	1.400000	59.000000	n/a	n/a	n/a	0.891000
18.000000	e_59_a1.4	dec_leave	2.000000	1.000000	1.400000	59.000000	1	0	8	2.134000
18.000000	e_59_a1.4	feedback	2	n/a	1.400000	59.000000	n/a	n/a	n/a	1.188000
19.000000	e_78_a1.2	dec_learn	1.000000	2.000000	1.200000	78.000000	n/a	n/a	n/a	1.345000
19.000000	e_78_a1.2	dec_learn	2.000000	4.000000	1.200000	78.000000	n/a	n/a	n/a	0.871000
19.000000	e_78_a1.2	dec_learn	3.000000	7.000000	1.200000	78.000000	n/a	n/a	n/a	0.645000
19.000000	e_78_a1.2	dec_learn	4.000000	11.000000	1.200000	78.000000	n/a	n/a	n/a	2.857000
19.000000	e_78_a1.2	dec_leave	5.000000	15.000000	1.200000	78.000000	1	0	6.5	4.278000
19.000000	e_78_a1.2	feedback	5	n/a	1.200000	78.000000	n/a	n/a	n/a	2.541000
20.000000	i_116_a1.4	dec_learn	1.000000	34.000000	1.400000	116.000000	n/a	n/a	n/a	37.817000
20.000000	i_116_a1.4	dec_stay	2.000000	58.000000	1.400000	116.000000	1	1	8	1.317000
20.000000	i_116_a1.4	feedback	2	n/a	1.400000	116.000000	n/a	n/a	n/a	1.678000
21.000000	e_59_a1.4	dec_learn	1.000000	0.000000	1.400000	59.000000	n/a	n/a	n/a	1.060000
21.000000	e_59_a1.4	dec_learn	2.000000	1.000000	1.400000	59.000000	n/a	n/a	n/a	1.585000
21.000000	e_59_a1.4	dec_leave	3.000000	2.000000	1.400000	59.000000	1	0	7.5	1.716000
21.000000	e_59_a1.4	feedback	3	n/a	1.400000	59.000000	n/a	n/a	n/a	1.388000
22.000000	i_84_a1.4	dec_learn	1.000000	25.000000	1.400000	84.000000	n/a	n/a	n/a	0.940000
22.000000	i_84_a1.4	dec_learn	2.000000	42.000000	1.400000	84.000000	n/a	n/a	n/a	0.524000
22.000000	i_84_a1.4	dec_stay	3.000000	55.000000	1.400000	84.000000	0	1	0	1.448000
22.000000	i_84_a1.4	feedback	3	n/a	1.400000	84.000000	n/a	n/a	n/a	2.351000
23.000000	e_127_a1.2	dec_leave	1.000000	3.000000	1.200000	127.000000	0	0	0	2.146000
23.000000	e_127_a1.2	feedback	1	n/a	1.200000	127.000000	n/a	n/a	n/a	1.336000
24.000000	e_59_a1.4	dec_learn	1.000000	0.000000	1.400000	59.000000	n/a	n/a	n/a	1.551000
24.000000	e_59_a1.4	dec_learn	2.000000	1.000000	1.400000	59.000000	n/a	n/a	n/a	0.624000
24.000000	e_59_a1.4	dec_learn	3.000000	2.000000	1.400000	59.000000	n/a	n/a	n/a	0.552000
24.000000	e_59_a1.4	dec_leave	4.000000	3.000000	1.400000	59.000000	1	0	7	0.824000
24.000000	e_59_a1.4	feedback	4	n/a	1.400000	59.000000	n/a	n/a	n/a	1.295000
