block	trial_type	phase	turn	tokens	alpha	final_value	correct	stay	earnings	response_time
1.000000	i_116_a1.4	dec_stay	1.000000	34.000000	1.400000	116.000000	1	1	8.5	5.684000
1.000000	i_116_a1.4	feedback	1	n/a	1.400000	116.000000	n/a	n/a	n/a	2.031000
2.000000	i_88_a1.2	dec_learn	1.000000	16.000000	1.200000	88.000000	n/a	n/a	n/a	7.792000
2.000000	i_88_a1.2	dec_stay	2.000000	30.000000	1.200000	88.000000	0	1	0	4.236000
2.000000	i_88_a1.2	feedback	2	n/a	1.200000	88.000000	n/a	n/a	n/a	4.697000
3.000000	e_59_a1.4	dec_learn	1.000000	0.000000	1.400000	59.000000	n/a	n/a	n/a	5.178000
3.000000	e_59_a1.4	dec_learn	2.000000	1.000000	1.400000	59.000000	n/a	n/a	n/a	3.775000
3.000000	e_59_a1.4	dec_learn	3.000000	2.000000	1.400000	59.000000	n/a	n/a	n/a	3.000000
3.000000	e_59_a1.4	dec_learn	4.000000	3.000000	1.400000	59.000000	n/a	n/a	n/a	3.316000
3.000000	e_59_a1.4	dec_learn	5.000000	5.000000	1.400000	59.000000	n/a	n/a	n/a	3.439000
3.000000	e_59_a1.4	dec_stay	6.000000	7.000000	1.400000	59.000000	0	1	0	4.100000
3.000000	e_59_a1.4	feedback	6	n/a	1.400000	59.000000	n/a	n/a	n/a	1.621000
4.000000	i_84_a1.4	dec_learn	1.000000	25.000000	1.400000	84.000000	n/a	n/a	n/a	5.723000
4.000000	i_84_a1.4	dec_learn	2.000000	42.000000	1.400000	84.000000	n/a	n/a	n/a	2.342000
4.000000	i_84_a1.4	dec_learn	3.000000	55.000000	1.400000	84.000000	n/a	n/a	n/a	2.184000
4.000000	i_84_a1.4	dec_learn	4.000000	64.000000	1.400000	84.000000	n/a	n/a	n/a	7.077000
4.000000	i_84_a1.4	dec_learn	5.000000	70.000000	1.400000	84.000000	n/a	n/a	n/a	3.331000
4.000000	i_84_a1.4	dec_stay	6.000000	75.000000	1.400000	84.000000	0	1	0	2.463000
4.000000	i_84_a1.4	feedback	6	n/a	1.400000	84.000000	n/a	n/a	n/a	1.947000
5.000000	e_166_a1.4	dec_leave	1.000000	1.000000	1.400000	166.000000	0	0	0	3.158000
5.000000	e_166_a1.4	feedback	1	n/a	1.400000	166.000000	n/a	n/a	n/a	1.243000
6.000000	e_127_a1.2	dec_learn	1.000000	3.000000	1.200000	127.000000	n/a	n/a	n/a	5.000000
6.000000	e_127_a1.2	dec_leave	2.000000	7.000000	1.200000	127.000000	0	0	0	1.064000
6.000000	e_127_a1.2	feedback	2	n/a	1.200000	127.000000	n/a	n/a	n/a	1.700000
7.000000	e_59_a1.4	dec_leave	1.000000	0.000000	1.400000	59.000000	1	0	8.5	5.237000
7.000000	e_59_a1.4	feedback	1	n/a	1.400000	59.000000	n/a	n/a	n/a	2.095000
8.000000	e_78_a1.2	dec_learn	1.000000	2.000000	1.200000	78.000000	n/a	n/a	n/a	6.498000
8.000000	e_78_a1.2	dec_learn	2.000000	4.000000	1.200000	78.000000	n/a	n/a	n/a	4.501000
8.000000	e_78_a1.2	dec_learn	3.000000	7.000000	1.200000	78.000000	n/a	n/a	n/a	3.178000
8.000000	e_78_a1.2	dec_learn	4.000000	11.000000	1.200000	78.000000	n/a	n/a	n/a	3.169000
8.000000	e_78_a1.2	dec_learn	5.000000	15.000000	1.200000	78.000000	n/a	n/a	n/a	2.978000
8.000000	e_78_a1.2	dec_stay	6.000000	20.000000	1.200000	78.000000	0	1	0	5.576000
8.000000	e_78_a1.2	feedback	6	n/a	1.200000	78.000000	n/a	n/a	n/a	1.068000
9.000000	e_78_a1.2	dec_leave	1.000000	2.000000	1.200000	78.000000	1	0	8.5	4.101000
9.000000	e_78_a1.2	feedback	1	n/a	1.200000	78.000000	n/a	n/a	n/a	4.100000
10.000000	i_116_a1.4	dec_learn	1.000000	34.000000	1.400000	116.000000	n/a	n/a	n/a	7.739000
10.000000	i_116_a1.4	dec_learn	2.000000	58.000000	1.400000	116.000000	n/a	n/a	n/a	4.318000
10.000000	i_116_a1.4	dec_learn	3.000000	75.000000	1.400000	116.000000	n/a	n/a	n/a	4.676000
10.000000	i_116_a1.4	dec_learn	4.000000	87.000000	1.400000	116.000000	n/a	n/a	n/a	4.562000
10.000000	i_116_a1.4	dec_learn	5.000000	96.000000	1.400000	116.000000	n/a	n/a	n/a	3.397000
10.000000	i_116_a1.4	dec_stay	6.000000	102.000000	1.400000	116.000000	1	1	6	2.921000
10.000000	i_116_a1.4	feedback	6	n/a	1.400000	116.000000	n/a	n/a	n/a	25.000000
11.000000	i_84_a1.4	dec_learn	1.000000	25.000000	1.400000	84.000000	n/a	n/a	n/a	4.874000
11.000000	i_84_a1.4	dec_learn	2.000000	42.000000	1.400000	84.000000	n/a	n/a	n/a	2.485000
11.000000	i_84_a1.4	dec_learn	3.000000	55.000000	1.400000	84.000000	n/a	n/a	n/a	2.626000
11.000000	i_84_a1.4	dec_learn	4.000000	64.000000	1.400000	84.000000	n/a	n/a	n/a	2.786000
11.000000	i_84_a1.4	dec_leave	5.000000	70.000000	1.400000	84.000000	1	0	6.5	2.766000
11.000000	i_84_a1.4	feedback	5	n/a	1.400000	84.000000	n/a	n/a	n/a	5.647000
12.000000	i_88_a1.2	dec_learn	1.000000	16.000000	1.200000	88.000000	n/a	n/a	n/a	7.201000
12.000000	i_88_a1.2	dec_learn	2.000000	30.000000	1.200000	88.000000	n/a	n/a	n/a	2.000000
12.000000	i_88_a1.2	dec_learn	3.000000	42.000000	1.200000	88.000000	n/a	n/a	n/a	2.087000
12.000000	i_88_a1.2	dec_learn	4.000000	51.000000	1.200000	88.000000	n/a	n/a	n/a	2.225000
12.000000	i_88_a1.2	dec_learn	5.000000	59.000000	1.200000	88.000000	n/a	n/a	n/a	2.573000
12.000000	i_88_a1.2	dec_leave	6.000000	66.000000	1.200000	88.000000	1	0	6	9.353000
12.000000	i_88_a1.2	feedback	6	n/a	1.200000	88.000000	n/a	n/a	n/a	1.700000
13.000000	e_59_a1.4	dec_leave	1.000000	0.000000	1.400000	59.000000	1	0	8.5	6.217000
13.000000	e_59_a1.4	feedback	1	n/a	1.400000	59.000000	n/a	n/a	n/a	1.919000
14.000000	e_78_a1.2	dec_leave	1.000000	2.000000	1.200000	78.000000	1	0	8.5	3.940000
14.000000	e_78_a1.2	feedback	1	n/a	1.200000	78.000000	n/a	n/a	n/a	1.619000
15.000000	i_84_a1.4	dec_learn	1.000000	25.000000	1.400000	84.000000	n/a	n/a	n/a	5.292000
15.000000	i_84_a1.4	dec_learn	2.000000	42.000000	1.400000	84.000000	n/a	n/a	n/a	2.427000
15.000000	i_84_a1.4	dec_learn	3.000000	55.000000	1.400000	84.000000	n/a	n/a	n/a	1.873000
15.000000	i_84_a1.4	dec_learn	4.000000	64.000000	1.400000	84.000000	n/a	n/a	n/a	1.666000
15.000000	i_84_a1.4	dec_learn	5.000000	70.000000	1.400000	84.000000	n/a	n/a	n/a	2.430000
15.000000	i_84_a1.4	dec_leave	6.000000	75.000000	1.400000	84.000000	1	0	6	2.263000
15.000000	i_84_a1.4	feedback	6	n/a	1.400000	84.000000	n/a	n/a	n/a	3.000000
16.000000	i_113_a1.2	dec_learn	1.000000	21.000000	1.200000	113.000000	n/a	n/a	n/a	5.889000
16.000000	i_113_a1.2	dec_learn	2.000000	39.000000	1.200000	113.000000	n/a	n/a	n/a	1.779000
16.000000	i_113_a1.2	dec_learn	3.000000	53.000000	1.200000	113.000000	n/a	n/a	n/a	1.700000
16.000000	i_113_a1.2	dec_learn	4.000000	66.000000	1.200000	113.000000	n/a	n/a	n/a	1.694000
16.000000	i_113_a1.2	dec_learn	5.000000	76.000000	1.200000	113.000000	n/a	n/a	n/a	2.501000
16.000000	i_113_a1.2	dec_stay	6.000000	84.000000	1.200000	113.000000	1	1	6	2.244000
16.000000	i_113_a1.2	feedback	6	n/a	1.200000	113.000000	n/a	n/a	n/a	1.887000
17.000000	i_113_a1.2	dec_leave	1.000000	21.000000	1.200000	113.000000	0	0	0	8.723000
17.000000	i_113_a1.2	feedback	1	n/a	1.200000	113.000000	n/a	n/a	n/a	1.425000
18.000000	i_113_a1.2	dec_learn	1.000000	21.000000	1.200000	113.000000	n/a	n/a	n/a	2.748000
18.000000	i_113_a1.2	dec_learn	2.000000	39.000000	1.200000	113.000000	n/a	n/a	n/a	1.672000
18.000000	i_113_a1.2	dec_learn	3.000000	53.000000	1.200000	113.000000	n/a	n/a	n/a	2.201000
18.000000	i_113_a1.2	dec_learn	4.000000	66.000000	1.200000	113.000000	n/a	n/a	n/a	1.848000
18.000000	i_113_a1.2	dec_learn	5.000000	76.000000	1.200000	113.000000	n/a	n/a	n/a	2.847000
18.000000	i_113_a1.2	dec_stay	6.000000	84.000000	1.200000	113.000000	1	1	6	2.782000
18.000000	i_113_a1.2	feedback	6	n/a	1.200000	113.000000	n/a	n/a	n/a	2.085000
19.000000	e_166_a1.4	dec_leave	1.000000	1.000000	1.400000	166.000000	0	0	0	3.562000
19.000000	e_166_a1.4	feedback	1	n/a	1.400000	166.000000	n/a	n/a	n/a	1.696000
20.000000	e_127_a1.2	dec_learn	1.000000	3.000000	1.200000	127.000000	n/a	n/a	n/a	5.778000
20.000000	e_127_a1.2	dec_leave	2.000000	7.000000	1.200000	127.000000	0	0	0	1.959000
20.000000	e_127_a1.2	feedback	2	n/a	1.200000	127.000000	n/a	n/a	n/a	1.301000
21.000000	e_166_a1.4	dec_leave	1.000000	1.000000	1.400000	166.000000	0	0	0	2.900000
21.000000	e_166_a1.4	feedback	1	n/a	1.400000	166.000000	n/a	n/a	n/a	1.350000
22.000000	e_127_a1.2	dec_learn	1.000000	3.000000	1.200000	127.000000	n/a	n/a	n/a	2.254000
22.000000	e_127_a1.2	dec_stay	2.000000	7.000000	1.200000	127.000000	1	1	8	6.844000
22.000000	e_127_a1.2	feedback	2	n/a	1.200000	127.000000	n/a	n/a	n/a	2.100000
23.000000	i_116_a1.4	dec_learn	1.000000	34.000000	1.400000	116.000000	n/a	n/a	n/a	9.568000
23.000000	i_116_a1.4	dec_learn	2.000000	58.000000	1.400000	116.000000	n/a	n/a	n/a	3.118000
23.000000	i_116_a1.4	dec_learn	3.000000	75.000000	1.400000	116.000000	n/a	n/a	n/a	3.026000
23.000000	i_116_a1.4	dec_learn	4.000000	87.000000	1.400000	116.000000	n/a	n/a	n/a	3.701000
23.000000	i_116_a1.4	dec_stay	5.000000	96.000000	1.400000	116.000000	1	1	6.5	3.601000
23.000000	i_116_a1.4	feedback	5	n/a	1.400000	116.000000	n/a	n/a	n/a	3.027000
24.000000	i_88_a1.2	dec_leave	1.000000	16.000000	1.200000	88.000000	1	0	8.5	4.839000
24.000000	i_88_a1.2	feedback	1	n/a	1.200000	88.000000	n/a	n/a	n/a	1.754000
