block	trial_type	phase	turn	tokens	alpha	final_value	correct	stay	earnings	response_time
1.000000	e_166_a1.4	dec_learn	1.000000	1.000000	1.400000	166.000000	n/a	n/a	n/a	2.271
1.000000	e_166_a1.4	dec_learn	2.000000	3.000000	1.400000	166.000000	n/a	n/a	n/a	3.982
1.000000	e_166_a1.4	dec_stay	3.000000	5.000000	1.400000	166.000000	1	1	7.5	2.301
1.000000	e_166_a1.4	feedback	3	n/a	1.400000	166.000000	n/a	n/a	n/a	2.498
2.000000	i_116_a1.4	dec_learn	1.000000	34.000000	1.400000	116.000000	n/a	n/a	n/a	2.193
2.000000	i_116_a1.4	dec_stay	2.000000	58.000000	1.400000	116.000000	1	1	8	1.998
2.000000	i_116_a1.4	feedback	2	n/a	1.400000	116.000000	n/a	n/a	n/a	2.275
3.000000	i_84_a1.4	dec_learn	1.000000	25.000000	1.400000	84.000000	n/a	n/a	n/a	2.397
3.000000	i_84_a1.4	dec_stay	2.000000	42.000000	1.400000	84.000000	0	1	0	2.301
3.000000	i_84_a1.4	feedback	2	n/a	1.400000	84.000000	n/a	n/a	n/a	1.7
4.000000	i_113_a1.2	dec_learn	1.000000	21.000000	1.200000	113.000000	n/a	n/a	n/a	1.901
4.000000	i_113_a1.2	dec_learn	2.000000	39.000000	1.200000	113.000000	n/a	n/a	n/a	1.901
4.000000	i_113_a1.2	dec_stay	3.000000	53.000000	1.200000	113.000000	1	1	7.5	1.771
4.000000	i_113_a1.2	feedback	3	n/a	1.200000	113.000000	n/a	n/a	n/a	1.376
5.000000	e_127_a1.2	dec_learn	1.000000	3.000000	1.200000	127.000000	n/a	n/a	n/a	1.656
5.000000	e_127_a1.2	dec_learn	2.000000	7.000000	1.200000	127.000000	n/a	n/a	n/a	1.801
5.000000	e_127_a1.2	dec_leave	3.000000	12.000000	1.200000	127.000000	0	0	0	1.243
5.000000	e_127_a1.2	feedback	3	n/a	1.200000	127.000000	n/a	n/a	n/a	1.251
6.000000	e_166_a1.4	dec_stay	1.000000	1.000000	1.400000	166.000000	1	1	8.5	1.6
6.000000	e_166_a1.4	feedback	1	n/a	1.400000	166.000000	n/a	n/a	n/a	1.183
7.000000	e_59_a1.4	dec_learn	1.000000	0.000000	1.400000	59.000000	n/a	n/a	n/a	4.069
7.000000	e_59_a1.4	dec_learn	2.000000	1.000000	1.400000	59.000000	n/a	n/a	n/a	1.68
7.000000	e_59_a1.4	dec_leave	3.000000	2.000000	1.400000	59.000000	1	0	7.5	1.271
7.000000	e_59_a1.4	feedback	3	n/a	1.400000	59.000000	n/a	n/a	n/a	1.857
8.000000	e_78_a1.2	dec_learn	1.000000	2.000000	1.200000	78.000000	n/a	n/a	n/a	3.556
8.000000	e_78_a1.2	dec_learn	2.000000	4.000000	1.200000	78.000000	n/a	n/a	n/a	2.649
8.000000	e_78_a1.2	dec_stay	3.000000	7.000000	1.200000	78.000000	0	1	0	1.4
8.000000	e_78_a1.2	feedback	3	n/a	1.200000	78.000000	n/a	n/a	n/a	1.443
9.000000	i_88_a1.2	dec_learn	1.000000	16.000000	1.200000	88.000000	n/a	n/a	n/a	2.6
9.000000	i_88_a1.2	dec_stay	2.000000	30.000000	1.200000	88.000000	0	1	0	1.301
9.000000	i_88_a1.2	feedback	2	n/a	1.200000	88.000000	n/a	n/a	n/a	0.992
10.000000	i_84_a1.4	dec_learn	1.000000	25.000000	1.400000	84.000000	n/a	n/a	n/a	1.501
10.000000	i_84_a1.4	dec_stay	2.000000	42.000000	1.400000	84.000000	0	1	0	1.501
10.000000	i_84_a1.4	feedback	2	n/a	1.400000	84.000000	n/a	n/a	n/a	0.7
11.000000	i_113_a1.2	dec_learn	1.000000	21.000000	1.200000	113.000000	n/a	n/a	n/a	1.2
11.000000	i_113_a1.2	dec_stay	2.000000	39.000000	1.200000	113.000000	1	1	8	1.963
11.000000	i_113_a1.2	feedback	2	n/a	1.200000	113.000000	n/a	n/a	n/a	1.394
12.000000	e_59_a1.4	dec_learn	1.000000	0.000000	1.400000	59.000000	n/a	n/a	n/a	1.775
12.000000	e_59_a1.4	dec_learn	2.000000	1.000000	1.400000	59.000000	n/a	n/a	n/a	1.66
12.000000	e_59_a1.4	dec_leave	3.000000	2.000000	1.400000	59.000000	1	0	7.5	1.468
12.000000	e_59_a1.4	feedback	3	n/a	1.400000	59.000000	n/a	n/a	n/a	1.101
13.000000	i_84_a1.4	dec_learn	1.000000	25.000000	1.400000	84.000000	n/a	n/a	n/a	2.148
13.000000	i_84_a1.4	dec_learn	2.000000	42.000000	1.400000	84.000000	n/a	n/a	n/a	2.237
13.000000	i_84_a1.4	dec_stay	3.000000	55.000000	1.400000	84.000000	0	1	0	1.301
13.000000	i_84_a1.4	feedback	3	n/a	1.400000	84.000000	n/a	n/a	n/a	0.7
14.000000	e_78_a1.2	dec_learn	1.000000	2.000000	1.200000	78.000000	n/a	n/a	n/a	1.801
14.000000	e_78_a1.2	dec_learn	2.000000	4.000000	1.200000	78.000000	n/a	n/a	n/a	1.301
14.000000	e_78_a1.2	dec_leave	3.000000	7.000000	1.200000	78.000000	1	0	7.5	1.18
14.000000	e_78_a1.2	feedback	3	n/a	1.200000	78.000000	n/a	n/a	n/a	1.361
15.000000	i_88_a1.2	dec_learn	1.000000	16.000000	1.200000	88.000000	n/a	n/a	n/a	1.752
15.000000	i_88_a1.2	dec_stay	2.000000	30.000000	1.200000	88.000000	0	1	0	1.4
15.000000	i_88_a1.2	feedback	2	n/a	1.200000	88.000000	n/a	n/a	n/a	0.501
16.000000	e_78_a1.2	dec_learn	1.000000	2.000000	1.200000	78.000000	n/a	n/a	n/a	1.569
16.000000	e_78_a1.2	dec_stay	2.000000	4.000000	1.200000	78.000000	0	1	0	1.701
16.000000	e_78_a1.2	feedback	2	n/a	1.200000	78.000000	n/a	n/a	n/a	0.974
17.000000	i_113_a1.2	dec_learn	1.000000	21.000000	1.200000	113.000000	n/a	n/a	n/a	1.278
17.000000	i_113_a1.2	dec_stay	2.000000	39.000000	1.200000	113.000000	1	1	8	1.4
17.000000	i_113_a1.2	feedback	2	n/a	1.200000	113.000000	n/a	n/a	n/a	1.147
18.000000	e_59_a1.4	dec_learn	1.000000	0.000000	1.400000	59.000000	n/a	n/a	n/a	1.647
18.000000	e_59_a1.4	dec_learn	2.000000	1.000000	1.400000	59.000000	n/a	n/a	n/a	2.079
18.000000	e_59_a1.4	dec_stay	3.000000	2.000000	1.400000	59.000000	0	1	0	2.785
18.000000	e_59_a1.4	feedback	3	n/a	1.400000	59.000000	n/a	n/a	n/a	0.549
19.000000	e_127_a1.2	dec_learn	1.000000	3.000000	1.200000	127.000000	n/a	n/a	n/a	1.89
19.000000	e_127_a1.2	dec_learn	2.000000	7.000000	1.200000	127.000000	n/a	n/a	n/a	1.747
19.000000	e_127_a1.2	dec_stay	3.000000	12.000000	1.200000	127.000000	1	1	7.5	1.2
19.000000	e_127_a1.2	feedback	3	n/a	1.200000	127.000000	n/a	n/a	n/a	1.349
20.000000	e_127_a1.2	dec_learn	1.000000	3.000000	1.200000	127.000000	n/a	n/a	n/a	2.285
20.000000	e_127_a1.2	dec_learn	2.000000	7.000000	1.200000	127.000000	n/a	n/a	n/a	1.3
20.000000	e_127_a1.2	dec_stay	3.000000	12.000000	1.200000	127.000000	1	1	7.5	1.101
20.000000	e_127_a1.2	feedback	3	n/a	1.200000	127.000000	n/a	n/a	n/a	1.356
21.000000	i_116_a1.4	dec_learn	1.000000	34.000000	1.400000	116.000000	n/a	n/a	n/a	1.56
21.000000	i_116_a1.4	dec_stay	2.000000	58.000000	1.400000	116.000000	1	1	8	1.5
21.000000	i_116_a1.4	feedback	2	n/a	1.400000	116.000000	n/a	n/a	n/a	1.101
22.000000	e_166_a1.4	dec_learn	1.000000	1.000000	1.400000	166.000000	n/a	n/a	n/a	1.5
22.000000	e_166_a1.4	dec_learn	2.000000	3.000000	1.400000	166.000000	n/a	n/a	n/a	1.7
22.000000	e_166_a1.4	dec_leave	3.000000	5.000000	1.400000	166.000000	0	0	0	1.663
22.000000	e_166_a1.4	feedback	3	n/a	1.400000	166.000000	n/a	n/a	n/a	0.645
23.000000	i_116_a1.4	dec_learn	1.000000	34.000000	1.400000	116.000000	n/a	n/a	n/a	1.258
23.000000	i_116_a1.4	dec_stay	2.000000	58.000000	1.400000	116.000000	1	1	8	1.101
23.000000	i_116_a1.4	feedback	2	n/a	1.400000	116.000000	n/a	n/a	n/a	1.266
24.000000	i_88_a1.2	dec_learn	1.000000	16.000000	1.200000	88.000000	n/a	n/a	n/a	1.397
24.000000	i_88_a1.2	dec_stay	2.000000	30.000000	1.200000	88.000000	0	1	0	1.377
24.000000	i_88_a1.2	feedback	2	n/a	1.200000	88.000000	n/a	n/a	n/a	0.779
