block	trial_type	phase	turn	tokens	alpha	final_value	correct	stay	earnings	response_time
1.000000	i_113_a1.2	dec_learn	1.000000	21.000000	1.200000	113.000000	n/a	n/a	n/a	2.864000
1.000000	i_113_a1.2	dec_learn	2.000000	39.000000	1.200000	113.000000	n/a	n/a	n/a	2.489000
1.000000	i_113_a1.2	dec_stay	3.000000	53.000000	1.200000	113.000000	1	1	7.5	1.737000
1.000000	i_113_a1.2	feedback	3	n/a	1.200000	113.000000	n/a	n/a	n/a	14.217000
2.000000	i_88_a1.2	dec_learn	1.000000	16.000000	1.200000	88.000000	n/a	n/a	n/a	3.159000
2.000000	i_88_a1.2	dec_learn	2.000000	30.000000	1.200000	88.000000	n/a	n/a	n/a	2.062000
2.000000	i_88_a1.2	dec_learn	3.000000	42.000000	1.200000	88.000000	n/a	n/a	n/a	2.335000
2.000000	i_88_a1.2	dec_learn	4.000000	51.000000	1.200000	88.000000	n/a	n/a	n/a	4.739000
2.000000	i_88_a1.2	dec_stay	5.000000	59.000000	1.200000	88.000000	0	1	0	2.911000
2.000000	i_88_a1.2	feedback	5	n/a	1.200000	88.000000	n/a	n/a	n/a	2.553000
3.000000	i_84_a1.4	dec_learn	1.000000	25.000000	1.400000	84.000000	n/a	n/a	n/a	2.615000
3.000000	i_84_a1.4	dec_learn	2.000000	42.000000	1.400000	84.000000	n/a	n/a	n/a	1.898000
3.000000	i_84_a1.4	dec_learn	3.000000	55.000000	1.400000	84.000000	n/a	n/a	n/a	1.080000
3.000000	i_84_a1.4	dec_stay	4.000000	64.000000	1.400000	84.000000	0	1	0	1.171000
3.000000	i_84_a1.4	feedback	4	n/a	1.400000	84.000000	n/a	n/a	n/a	1.146000
4.000000	e_78_a1.2	dec_learn	1.000000	2.000000	1.200000	78.000000	n/a	n/a	n/a	1.845000
4.000000	e_78_a1.2	dec_learn	2.000000	4.000000	1.200000	78.000000	n/a	n/a	n/a	1.137000
4.000000	e_78_a1.2	dec_learn	3.000000	7.000000	1.200000	78.000000	n/a	n/a	n/a	1.470000
4.000000	e_78_a1.2	dec_stay	4.000000	11.000000	1.200000	78.000000	0	1	0	1.741000
4.000000	e_78_a1.2	feedback	4	n/a	1.200000	78.000000	n/a	n/a	n/a	1.207000
5.000000	i_116_a1.4	dec_learn	1.000000	34.000000	1.400000	116.000000	n/a	n/a	n/a	2.384000
5.000000	i_116_a1.4	dec_learn	2.000000	58.000000	1.400000	116.000000	n/a	n/a	n/a	1.306000
5.000000	i_116_a1.4	dec_stay	3.000000	75.000000	1.400000	116.000000	1	1	7.5	1.046000
5.000000	i_116_a1.4	feedback	3	n/a	1.400000	116.000000	n/a	n/a	n/a	1.085000
6.000000	i_84_a1.4	dec_learn	1.000000	25.000000	1.400000	84.000000	n/a	n/a	n/a	1.612000
6.000000	i_84_a1.4	dec_learn	2.000000	42.000000	1.400000	84.000000	n/a	n/a	n/a	1.296000
6.000000	i_84_a1.4	dec_learn	3.000000	55.000000	1.400000	84.000000	n/a	n/a	n/a	1.840000
6.000000	i_84_a1.4	dec_stay	4.000000	64.000000	1.400000	84.000000	0	1	0	1.671000
7.000000	i_113_a1.2	dec_learn	1.000000	21.000000	1.200000	113.000000	n/a	n/a	n/a	1.564000
7.000000	i_113_a1.2	dec_learn	2.000000	39.000000	1.200000	113.000000	n/a	n/a	n/a	0.879000
7.000000	i_113_a1.2	dec_learn	3.000000	53.000000	1.200000	113.000000	n/a	n/a	n/a	0.930000
7.000000	i_113_a1.2	dec_learn	4.000000	66.000000	1.200000	113.000000	n/a	n/a	n/a	1.107000
7.000000	i_113_a1.2	dec_stay	5.000000	76.000000	1.200000	113.000000	1	1	6.5	0.837000
7.000000	i_113_a1.2	feedback	5	n/a	1.200000	113.000000	n/a	n/a	n/a	1.121000
8.000000	e_78_a1.2	dec_learn	1.000000	2.000000	1.200000	78.000000	n/a	n/a	n/a	1.732000
8.000000	e_78_a1.2	dec_learn	2.000000	4.000000	1.200000	78.000000	n/a	n/a	n/a	1.094000
8.000000	e_78_a1.2	dec_learn	3.000000	7.000000	1.200000	78.000000	n/a	n/a	n/a	0.987000
8.000000	e_78_a1.2	dec_learn	4.000000	11.000000	1.200000	78.000000	n/a	n/a	n/a	0.905000
8.000000	e_78_a1.2	dec_learn	5.000000	15.000000	1.200000	78.000000	n/a	n/a	n/a	1.134000
8.000000	e_78_a1.2	dec_leave	6.000000	20.000000	1.200000	78.000000	1	0	6	1.210000
8.000000	e_78_a1.2	feedback	6	n/a	1.200000	78.000000	n/a	n/a	n/a	0.960000
9.000000	e_166_a1.4	dec_learn	1.000000	1.000000	1.400000	166.000000	n/a	n/a	n/a	1.665000
9.000000	e_166_a1.4	dec_learn	2.000000	3.000000	1.400000	166.000000	n/a	n/a	n/a	1.097000
9.000000	e_166_a1.4	dec_learn	3.000000	5.000000	1.400000	166.000000	n/a	n/a	n/a	1.118000
9.000000	e_166_a1.4	dec_leave	4.000000	9.000000	1.400000	166.000000	0	0	0	1.290000
9.000000	e_166_a1.4	feedback	4	n/a	1.400000	166.000000	n/a	n/a	n/a	0.813000
10.000000	e_127_a1.2	dec_learn	1.000000	3.000000	1.200000	127.000000	n/a	n/a	n/a	1.588000
10.000000	e_127_a1.2	dec_learn	2.000000	7.000000	1.200000	127.000000	n/a	n/a	n/a	0.943000
10.000000	e_127_a1.2	dec_learn	3.000000	12.000000	1.200000	127.000000	n/a	n/a	n/a	0.983000
10.000000	e_127_a1.2	dec_learn	4.000000	17.000000	1.200000	127.000000	n/a	n/a	n/a	1.794000
10.000000	e_127_a1.2	dec_learn	5.000000	24.000000	1.200000	127.000000	n/a	n/a	n/a	1.185000
10.000000	e_127_a1.2	dec_leave	6.000000	32.000000	1.200000	127.000000	0	0	0	1.505000
10.000000	e_127_a1.2	feedback	6	n/a	1.200000	127.000000	n/a	n/a	n/a	0.747000
11.000000	i_116_a1.4	dec_learn	1.000000	34.000000	1.400000	116.000000	n/a	n/a	n/a	5.061000
11.000000	i_116_a1.4	dec_learn	2.000000	58.000000	1.400000	116.000000	n/a	n/a	n/a	1.084000
11.000000	i_116_a1.4	dec_stay	3.000000	75.000000	1.400000	116.000000	1	1	7.5	1.371000
11.000000	i_116_a1.4	feedback	3	n/a	1.400000	116.000000	n/a	n/a	n/a	1.005000
12.000000	i_113_a1.2	dec_learn	1.000000	21.000000	1.200000	113.000000	n/a	n/a	n/a	1.914000
12.000000	i_113_a1.2	dec_learn	2.000000	39.000000	1.200000	113.000000	n/a	n/a	n/a	0.911000
12.000000	i_113_a1.2	dec_learn	3.000000	53.000000	1.200000	113.000000	n/a	n/a	n/a	0.927000
12.000000	i_113_a1.2	dec_learn	4.000000	66.000000	1.200000	113.000000	n/a	n/a	n/a	0.885000
12.000000	i_113_a1.2	dec_stay	5.000000	76.000000	1.200000	113.000000	1	1	6.5	1.175000
12.000000	i_113_a1.2	feedback	5	n/a	1.200000	113.000000	n/a	n/a	n/a	0.782000
13.000000	i_88_a1.2	dec_learn	1.000000	16.000000	1.200000	88.000000	n/a	n/a	n/a	1.152000
13.000000	i_88_a1.2	dec_learn	2.000000	30.000000	1.200000	88.000000	n/a	n/a	n/a	1.031000
13.000000	i_88_a1.2	dec_learn	3.000000	42.000000	1.200000	88.000000	n/a	n/a	n/a	0.941000
13.000000	i_88_a1.2	dec_learn	4.000000	51.000000	1.200000	88.000000	n/a	n/a	n/a	1.026000
13.000000	i_88_a1.2	dec_learn	5.000000	59.000000	1.200000	88.000000	n/a	n/a	n/a	1.670000
13.000000	i_88_a1.2	dec_stay	6.000000	66.000000	1.200000	88.000000	0	1	0	2.683000
13.000000	i_88_a1.2	feedback	6	n/a	1.200000	88.000000	n/a	n/a	n/a	0.735000
14.000000	e_127_a1.2	dec_learn	1.000000	3.000000	1.200000	127.000000	n/a	n/a	n/a	1.457000
14.000000	e_127_a1.2	dec_learn	2.000000	7.000000	1.200000	127.000000	n/a	n/a	n/a	0.909000
14.000000	e_127_a1.2	dec_learn	3.000000	12.000000	1.200000	127.000000	n/a	n/a	n/a	0.894000
14.000000	e_127_a1.2	dec_learn	4.000000	17.000000	1.200000	127.000000	n/a	n/a	n/a	1.250000
14.000000	e_127_a1.2	dec_stay	5.000000	24.000000	1.200000	127.000000	1	1	6.5	1.218000
14.000000	e_127_a1.2	feedback	5	n/a	1.200000	127.000000	n/a	n/a	n/a	0.916000
15.000000	i_88_a1.2	dec_learn	1.000000	16.000000	1.200000	88.000000	n/a	n/a	n/a	1.118000
15.000000	i_88_a1.2	dec_learn	2.000000	30.000000	1.200000	88.000000	n/a	n/a	n/a	0.922000
15.000000	i_88_a1.2	dec_learn	3.000000	42.000000	1.200000	88.000000	n/a	n/a	n/a	0.855000
15.000000	i_88_a1.2	dec_learn	4.000000	51.000000	1.200000	88.000000	n/a	n/a	n/a	1.497000
15.000000	i_88_a1.2	dec_learn	5.000000	59.000000	1.200000	88.000000	n/a	n/a	n/a	1.680000
15.000000	i_88_a1.2	dec_leave	6.000000	66.000000	1.200000	88.000000	1	0	6	1.612000
15.000000	i_88_a1.2	feedback	6	n/a	1.200000	88.000000	n/a	n/a	n/a	0.612000
16.000000	i_116_a1.4	dec_learn	1.000000	34.000000	1.400000	116.000000	n/a	n/a	n/a	1.767000
16.000000	i_116_a1.4	dec_learn	2.000000	58.000000	1.400000	116.000000	n/a	n/a	n/a	0.943000
16.000000	i_116_a1.4	dec_stay	3.000000	75.000000	1.400000	116.000000	1	1	7.5	0.975000
16.000000	i_116_a1.4	feedback	3	n/a	1.400000	116.000000	n/a	n/a	n/a	0.701000
17.000000	e_78_a1.2	dec_learn	1.000000	2.000000	1.200000	78.000000	n/a	n/a	n/a	1.145000
17.000000	e_78_a1.2	dec_learn	2.000000	4.000000	1.200000	78.000000	n/a	n/a	n/a	0.929000
17.000000	e_78_a1.2	dec_learn	3.000000	7.000000	1.200000	78.000000	n/a	n/a	n/a	0.850000
17.000000	e_78_a1.2	dec_learn	4.000000	11.000000	1.200000	78.000000	n/a	n/a	n/a	0.869000
17.000000	e_78_a1.2	dec_leave	5.000000	15.000000	1.200000	78.000000	1	0	6.5	0.918000
17.000000	e_78_a1.2	feedback	5	n/a	1.200000	78.000000	n/a	n/a	n/a	0.842000
18.000000	e_127_a1.2	dec_learn	1.000000	3.000000	1.200000	127.000000	n/a	n/a	n/a	1.249000
18.000000	e_127_a1.2	dec_learn	2.000000	7.000000	1.200000	127.000000	n/a	n/a	n/a	1.344000
18.000000	e_127_a1.2	dec_learn	3.000000	12.000000	1.200000	127.000000	n/a	n/a	n/a	1.341000
18.000000	e_127_a1.2	dec_learn	4.000000	17.000000	1.200000	127.000000	n/a	n/a	n/a	1.060000
18.000000	e_127_a1.2	dec_leave	5.000000	24.000000	1.200000	127.000000	0	0	0	1.281000
18.000000	e_127_a1.2	feedback	5	n/a	1.200000	127.000000	n/a	n/a	n/a	0.717000
19.000000	i_84_a1.4	dec_learn	1.000000	25.000000	1.400000	84.000000	n/a	n/a	n/a	1.383000
19.000000	i_84_a1.4	dec_learn	2.000000	42.000000	1.400000	84.000000	n/a	n/a	n/a	0.842000
19.000000	i_84_a1.4	dec_learn	3.000000	55.000000	1.400000	84.000000	n/a	n/a	n/a	0.887000
19.000000	i_84_a1.4	dec_stay	4.000000	64.000000	1.400000	84.000000	0	1	0	0.919000
19.000000	i_84_a1.4	feedback	4	n/a	1.400000	84.000000	n/a	n/a	n/a	0.574000
20.000000	e_59_a1.4	dec_learn	1.000000	0.000000	1.400000	59.000000	n/a	n/a	n/a	1.368000
20.000000	e_59_a1.4	dec_learn	2.000000	1.000000	1.400000	59.000000	n/a	n/a	n/a	0.769000
20.000000	e_59_a1.4	dec_learn	3.000000	2.000000	1.400000	59.000000	n/a	n/a	n/a	3.005000
20.000000	e_59_a1.4	dec_leave	4.000000	3.000000	1.400000	59.000000	1	0	7	1.583000
20.000000	e_59_a1.4	feedback	4	n/a	1.400000	59.000000	n/a	n/a	n/a	0.647000
21.000000	e_166_a1.4	dec_learn	1.000000	1.000000	1.400000	166.000000	n/a	n/a	n/a	1.555000
21.000000	e_166_a1.4	dec_learn	2.000000	3.000000	1.400000	166.000000	n/a	n/a	n/a	1.075000
21.000000	e_166_a1.4	dec_learn	3.000000	5.000000	1.400000	166.000000	n/a	n/a	n/a	1.049000
21.000000	e_166_a1.4	dec_leave	4.000000	9.000000	1.400000	166.000000	0	0	0	0.904000
21.000000	e_166_a1.4	feedback	4	n/a	1.400000	166.000000	n/a	n/a	n/a	0.678000
22.000000	e_59_a1.4	dec_learn	1.000000	0.000000	1.400000	59.000000	n/a	n/a	n/a	1.471000
22.000000	e_59_a1.4	dec_learn	2.000000	1.000000	1.400000	59.000000	n/a	n/a	n/a	0.902000
22.000000	e_59_a1.4	dec_learn	3.000000	2.000000	1.400000	59.000000	n/a	n/a	n/a	0.877000
22.000000	e_59_a1.4	dec_learn	4.000000	3.000000	1.400000	59.000000	n/a	n/a	n/a	1.380000
22.000000	e_59_a1.4	dec_leave	5.000000	5.000000	1.400000	59.000000	1	0	6.5	0.803000
22.000000	e_59_a1.4	feedback	5	n/a	1.400000	59.000000	n/a	n/a	n/a	0.633000
23.000000	e_59_a1.4	dec_learn	1.000000	0.000000	1.400000	59.000000	n/a	n/a	n/a	1.984000
23.000000	e_59_a1.4	dec_learn	2.000000	1.000000	1.400000	59.000000	n/a	n/a	n/a	1.642000
23.000000	e_59_a1.4	dec_leave	3.000000	2.000000	1.400000	59.000000	1	0	7.5	1.364000
23.000000	e_59_a1.4	feedback	3	n/a	1.400000	59.000000	n/a	n/a	n/a	0.541000
24.000000	e_166_a1.4	dec_learn	1.000000	1.000000	1.400000	166.000000	n/a	n/a	n/a	1.587000
24.000000	e_166_a1.4	dec_learn	2.000000	3.000000	1.400000	166.000000	n/a	n/a	n/a	0.894000
24.000000	e_166_a1.4	dec_learn	3.000000	5.000000	1.400000	166.000000	n/a	n/a	n/a	0.985000
24.000000	e_166_a1.4	dec_learn	4.000000	9.000000	1.400000	166.000000	n/a	n/a	n/a	1.699000
24.000000	e_166_a1.4	dec_leave	5.000000	13.000000	1.400000	166.000000	0	0	0	2.319000
24.000000	e_166_a1.4	feedback	5	n/a	1.400000	166.000000	n/a	n/a	n/a	0.836000
