block	trial_type	phase	turn	tokens	alpha	final_value	correct	stay	earnings	response_time
1.000000	e_59_a1.4	dec_learn	1.000000	0.000000	1.400000	59.000000	n/a	n/a	n/a	7.479
1.000000	e_59_a1.4	dec_learn	2.000000	1.000000	1.400000	59.000000	n/a	n/a	n/a	3.3
1.000000	e_59_a1.4	dec_learn	3.000000	2.000000	1.400000	59.000000	n/a	n/a	n/a	3.994
1.000000	e_59_a1.4	dec_learn	4.000000	3.000000	1.400000	59.000000	n/a	n/a	n/a	3.253
1.000000	e_59_a1.4	dec_learn	5.000000	5.000000	1.400000	59.000000	n/a	n/a	n/a	4.443
1.000000	e_59_a1.4	dec_leave	6.000000	7.000000	1.400000	59.000000	1	0	6	7.7
1.000000	e_59_a1.4	feedback	6	n/a	1.400000	59.000000	n/a	n/a	n/a	31.575
2.000000	e_78_a1.2	dec_learn	1.000000	2.000000	1.200000	78.000000	n/a	n/a	n/a	3.446
2.000000	e_78_a1.2	dec_learn	2.000000	4.000000	1.200000	78.000000	n/a	n/a	n/a	3.684
2.000000	e_78_a1.2	dec_learn	3.000000	7.000000	1.200000	78.000000	n/a	n/a	n/a	4.022
2.000000	e_78_a1.2	dec_learn	4.000000	11.000000	1.200000	78.000000	n/a	n/a	n/a	4.862
2.000000	e_78_a1.2	dec_learn	5.000000	15.000000	1.200000	78.000000	n/a	n/a	n/a	4.098
2.000000	e_78_a1.2	dec_leave	6.000000	20.000000	1.200000	78.000000	1	0	6	4.701
2.000000	e_78_a1.2	feedback	6	n/a	1.200000	78.000000	n/a	n/a	n/a	3.35
3.000000	e_78_a1.2	dec_learn	1.000000	2.000000	1.200000	78.000000	n/a	n/a	n/a	8.517
3.000000	e_78_a1.2	dec_learn	2.000000	4.000000	1.200000	78.000000	n/a	n/a	n/a	2.947
3.000000	e_78_a1.2	dec_learn	3.000000	7.000000	1.200000	78.000000	n/a	n/a	n/a	3.154
3.000000	e_78_a1.2	dec_learn	4.000000	11.000000	1.200000	78.000000	n/a	n/a	n/a	3.53
3.000000	e_78_a1.2	dec_learn	5.000000	15.000000	1.200000	78.000000	n/a	n/a	n/a	4.1
3.000000	e_78_a1.2	dec_leave	6.000000	20.000000	1.200000	78.000000	1	0	6	2.801
3.000000	e_78_a1.2	feedback	6	n/a	1.200000	78.000000	n/a	n/a	n/a	2.401
4.000000	e_127_a1.2	dec_learn	1.000000	3.000000	1.200000	127.000000	n/a	n/a	n/a	5.201
4.000000	e_127_a1.2	dec_learn	2.000000	7.000000	1.200000	127.000000	n/a	n/a	n/a	2.833
4.000000	e_127_a1.2	dec_learn	3.000000	12.000000	1.200000	127.000000	n/a	n/a	n/a	3.277
4.000000	e_127_a1.2	dec_learn	4.000000	17.000000	1.200000	127.000000	n/a	n/a	n/a	3.201
4.000000	e_127_a1.2	dec_learn	5.000000	24.000000	1.200000	127.000000	n/a	n/a	n/a	3.945
4.000000	e_127_a1.2	dec_stay	6.000000	32.000000	1.200000	127.000000	1	1	6	6.001
4.000000	e_127_a1.2	feedback	6	n/a	1.200000	127.000000	n/a	n/a	n/a	8.563
5.000000	e_78_a1.2	dec_learn	1.000000	2.000000	1.200000	78.000000	n/a	n/a	n/a	5.281
5.000000	e_78_a1.2	dec_learn	2.000000	4.000000	1.200000	78.000000	n/a	n/a	n/a	2.868
5.000000	e_78_a1.2	dec_learn	3.000000	7.000000	1.200000	78.000000	n/a	n/a	n/a	3.756
5.000000	e_78_a1.2	dec_learn	4.000000	11.000000	1.200000	78.000000	n/a	n/a	n/a	5.383
5.000000	e_78_a1.2	dec_learn	5.000000	15.000000	1.200000	78.000000	n/a	n/a	n/a	4.286
5.000000	e_78_a1.2	dec_leave	6.000000	20.000000	1.200000	78.000000	1	0	6	8.957
5.000000	e_78_a1.2	feedback	6	n/a	1.200000	78.000000	n/a	n/a	n/a	3.701
6.000000	e_166_a1.4	dec_learn	1.000000	1.000000	1.400000	166.000000	n/a	n/a	n/a	7.379
6.000000	e_166_a1.4	dec_learn	2.000000	3.000000	1.400000	166.000000	n/a	n/a	n/a	3.57
6.000000	e_166_a1.4	dec_learn	3.000000	5.000000	1.400000	166.000000	n/a	n/a	n/a	2.466
6.000000	e_166_a1.4	dec_learn	4.000000	9.000000	1.400000	166.000000	n/a	n/a	n/a	2.886
6.000000	e_166_a1.4	dec_learn	5.000000	13.000000	1.400000	166.000000	n/a	n/a	n/a	3.374
6.000000	e_166_a1.4	dec_leave	6.000000	19.000000	1.400000	166.000000	0	0	0	8.99
6.000000	e_166_a1.4	feedback	6	n/a	1.400000	166.000000	n/a	n/a	n/a	3.8
7.000000	i_84_a1.4	dec_learn	1.000000	25.000000	1.400000	84.000000	n/a	n/a	n/a	4.177
7.000000	i_84_a1.4	dec_learn	2.000000	42.000000	1.400000	84.000000	n/a	n/a	n/a	3.325
7.000000	i_84_a1.4	dec_stay	3.000000	55.000000	1.400000	84.000000	0	1	0	3.623
7.000000	i_84_a1.4	feedback	3	n/a	1.400000	84.000000	n/a	n/a	n/a	4.475
8.000000	e_127_a1.2	dec_learn	1.000000	3.000000	1.200000	127.000000	n/a	n/a	n/a	4.047
8.000000	e_127_a1.2	dec_learn	2.000000	7.000000	1.200000	127.000000	n/a	n/a	n/a	2.801
8.000000	e_127_a1.2	dec_learn	3.000000	12.000000	1.200000	127.000000	n/a	n/a	n/a	2.4
8.000000	e_127_a1.2	dec_learn	4.000000	17.000000	1.200000	127.000000	n/a	n/a	n/a	2.536
8.000000	e_127_a1.2	dec_learn	5.000000	24.000000	1.200000	127.000000	n/a	n/a	n/a	3.3
8.000000	e_127_a1.2	dec_stay	6.000000	32.000000	1.200000	127.000000	1	1	6	6.879
8.000000	e_127_a1.2	feedback	6	n/a	1.200000	127.000000	n/a	n/a	n/a	3.977
9.000000	i_88_a1.2	dec_learn	1.000000	16.000000	1.200000	88.000000	n/a	n/a	n/a	7.387
9.000000	i_88_a1.2	dec_learn	2.000000	30.000000	1.200000	88.000000	n/a	n/a	n/a	3.201
9.000000	i_88_a1.2	dec_learn	3.000000	42.000000	1.200000	88.000000	n/a	n/a	n/a	5.356
9.000000	i_88_a1.2	dec_stay	4.000000	51.000000	1.200000	88.000000	0	1	0	4.501
9.000000	i_88_a1.2	feedback	4	n/a	1.200000	88.000000	n/a	n/a	n/a	4.037
10.000000	e_59_a1.4	dec_learn	1.000000	0.000000	1.400000	59.000000	n/a	n/a	n/a	4.269
10.000000	e_59_a1.4	dec_learn	2.000000	1.000000	1.400000	59.000000	n/a	n/a	n/a	2.6
10.000000	e_59_a1.4	dec_learn	3.000000	2.000000	1.400000	59.000000	n/a	n/a	n/a	2.899
10.000000	e_59_a1.4	dec_learn	4.000000	3.000000	1.400000	59.000000	n/a	n/a	n/a	2.491
10.000000	e_59_a1.4	dec_learn	5.000000	5.000000	1.400000	59.000000	n/a	n/a	n/a	5.829
10.000000	e_59_a1.4	dec_leave	6.000000	7.000000	1.400000	59.000000	1	0	6	2.501
10.000000	e_59_a1.4	feedback	6	n/a	1.400000	59.000000	n/a	n/a	n/a	3.369
11.000000	e_166_a1.4	dec_learn	1.000000	1.000000	1.400000	166.000000	n/a	n/a	n/a	6.138
11.000000	e_166_a1.4	dec_learn	2.000000	3.000000	1.400000	166.000000	n/a	n/a	n/a	2.801
11.000000	e_166_a1.4	dec_learn	3.000000	5.000000	1.400000	166.000000	n/a	n/a	n/a	2.884
11.000000	e_166_a1.4	dec_learn	4.000000	9.000000	1.400000	166.000000	n/a	n/a	n/a	4.352
11.000000	e_166_a1.4	dec_learn	5.000000	13.000000	1.400000	166.000000	n/a	n/a	n/a	3.893
11.000000	e_166_a1.4	dec_stay	6.000000	19.000000	1.400000	166.000000	1	1	6	12.858
11.000000	e_166_a1.4	feedback	6	n/a	1.400000	166.000000	n/a	n/a	n/a	7.657
12.000000	i_113_a1.2	dec_stay	1.000000	21.000000	1.200000	113.000000	1	1	8.5	6.251
12.000000	i_113_a1.2	feedback	1	n/a	1.200000	113.000000	n/a	n/a	n/a	4.8
13.000000	i_113_a1.2	dec_stay	1.000000	21.000000	1.200000	113.000000	1	1	8.5	5.351
13.000000	i_113_a1.2	feedback	1	n/a	1.200000	113.000000	n/a	n/a	n/a	3.46
14.000000	i_116_a1.4	dec_stay	1.000000	34.000000	1.400000	116.000000	1	1	8.5	3.67
14.000000	i_116_a1.4	feedback	1	n/a	1.400000	116.000000	n/a	n/a	n/a	2.662
15.000000	i_84_a1.4	dec_learn	1.000000	25.000000	1.400000	84.000000	n/a	n/a	n/a	3.654
15.000000	i_84_a1.4	dec_stay	2.000000	42.000000	1.400000	84.000000	0	1	0	3.236
15.000000	i_84_a1.4	feedback	2	n/a	1.400000	84.000000	n/a	n/a	n/a	2.822
16.000000	e_166_a1.4	dec_learn	1.000000	1.000000	1.400000	166.000000	n/a	n/a	n/a	3.652
16.000000	e_166_a1.4	dec_learn	2.000000	3.000000	1.400000	166.000000	n/a	n/a	n/a	2.53
16.000000	e_166_a1.4	dec_leave	3.000000	5.000000	1.400000	166.000000	0	0	0	3.151
16.000000	e_166_a1.4	feedback	3	n/a	1.400000	166.000000	n/a	n/a	n/a	5.741
17.000000	i_113_a1.2	dec_learn	1.000000	21.000000	1.200000	113.000000	n/a	n/a	n/a	5.769
17.000000	i_113_a1.2	dec_learn	2.000000	39.000000	1.200000	113.000000	n/a	n/a	n/a	2.968
17.000000	i_113_a1.2	dec_learn	3.000000	53.000000	1.200000	113.000000	n/a	n/a	n/a	3.099
17.000000	i_113_a1.2	dec_stay	4.000000	66.000000	1.200000	113.000000	1	1	7	3.149
17.000000	i_113_a1.2	feedback	4	n/a	1.200000	113.000000	n/a	n/a	n/a	2.875
18.000000	i_116_a1.4	dec_learn	1.000000	34.000000	1.400000	116.000000	n/a	n/a	n/a	3.4
18.000000	i_116_a1.4	dec_stay	2.000000	58.000000	1.400000	116.000000	1	1	8	4.245
18.000000	i_116_a1.4	feedback	2	n/a	1.400000	116.000000	n/a	n/a	n/a	2.828
19.000000	i_84_a1.4	dec_learn	1.000000	25.000000	1.400000	84.000000	n/a	n/a	n/a	4.979
19.000000	i_84_a1.4	dec_stay	2.000000	42.000000	1.400000	84.000000	0	1	0	4.374
19.000000	i_84_a1.4	feedback	2	n/a	1.400000	84.000000	n/a	n/a	n/a	2.4
20.000000	i_88_a1.2	dec_learn	1.000000	16.000000	1.200000	88.000000	n/a	n/a	n/a	2.938
20.000000	i_88_a1.2	dec_learn	2.000000	30.000000	1.200000	88.000000	n/a	n/a	n/a	3.252
20.000000	i_88_a1.2	dec_learn	3.000000	42.000000	1.200000	88.000000	n/a	n/a	n/a	2.863
20.000000	i_88_a1.2	dec_learn	4.000000	51.000000	1.200000	88.000000	n/a	n/a	n/a	2.89
20.000000	i_88_a1.2	dec_learn	5.000000	59.000000	1.200000	88.000000	n/a	n/a	n/a	5.796
20.000000	i_88_a1.2	dec_leave	6.000000	66.000000	1.200000	88.000000	1	0	6	4.9
20.000000	i_88_a1.2	feedback	6	n/a	1.200000	88.000000	n/a	n/a	n/a	4.154
21.000000	e_59_a1.4	dec_learn	1.000000	0.000000	1.400000	59.000000	n/a	n/a	n/a	6.095
21.000000	e_59_a1.4	dec_learn	2.000000	1.000000	1.400000	59.000000	n/a	n/a	n/a	3.295
21.000000	e_59_a1.4	dec_learn	3.000000	2.000000	1.400000	59.000000	n/a	n/a	n/a	2.632
21.000000	e_59_a1.4	dec_learn	4.000000	3.000000	1.400000	59.000000	n/a	n/a	n/a	5.023
21.000000	e_59_a1.4	dec_leave	5.000000	5.000000	1.400000	59.000000	1	0	6.5	4.155
21.000000	e_59_a1.4	feedback	5	n/a	1.400000	59.000000	n/a	n/a	n/a	4.47
22.000000	e_127_a1.2	dec_learn	1.000000	3.000000	1.200000	127.000000	n/a	n/a	n/a	3.435
22.000000	e_127_a1.2	dec_learn	2.000000	7.000000	1.200000	127.000000	n/a	n/a	n/a	3.276
22.000000	e_127_a1.2	dec_learn	3.000000	12.000000	1.200000	127.000000	n/a	n/a	n/a	3.2
22.000000	e_127_a1.2	dec_learn	4.000000	17.000000	1.200000	127.000000	n/a	n/a	n/a	5.263
22.000000	e_127_a1.2	dec_leave	5.000000	24.000000	1.200000	127.000000	0	0	0	3.173
22.000000	e_127_a1.2	feedback	5	n/a	1.200000	127.000000	n/a	n/a	n/a	4.922
23.000000	i_88_a1.2	dec_learn	1.000000	16.000000	1.200000	88.000000	n/a	n/a	n/a	3.877
23.000000	i_88_a1.2	dec_learn	2.000000	30.000000	1.200000	88.000000	n/a	n/a	n/a	2.848
23.000000	i_88_a1.2	dec_learn	3.000000	42.000000	1.200000	88.000000	n/a	n/a	n/a	3.677
23.000000	i_88_a1.2	dec_learn	4.000000	51.000000	1.200000	88.000000	n/a	n/a	n/a	3.293
23.000000	i_88_a1.2	dec_learn	5.000000	59.000000	1.200000	88.000000	n/a	n/a	n/a	4.376
23.000000	i_88_a1.2	dec_stay	6.000000	66.000000	1.200000	88.000000	0	1	0	2.549
23.000000	i_88_a1.2	feedback	6	n/a	1.200000	88.000000	n/a	n/a	n/a	2.389
24.000000	i_116_a1.4	dec_learn	1.000000	34.000000	1.400000	116.000000	n/a	n/a	n/a	4.05
24.000000	i_116_a1.4	dec_stay	2.000000	58.000000	1.400000	116.000000	1	1	8	2.9
24.000000	i_116_a1.4	feedback	2	n/a	1.400000	116.000000	n/a	n/a	n/a	3.563
