block	trial_type	phase	turn	tokens	alpha	final_value	correct	stay	earnings	response_time
1.000000	i_113_a1.2	dec_stay	1.000000	21.000000	1.200000	113.000000	1	1	8.5	3.249000
1.000000	i_113_a1.2	feedback	1	n/a	1.200000	113.000000	n/a	n/a	n/a	3.311000
2.000000	e_78_a1.2	dec_stay	1.000000	2.000000	1.200000	78.000000	0	1	0	1.223000
2.000000	e_78_a1.2	feedback	1	n/a	1.200000	78.000000	n/a	n/a	n/a	5.015000
3.000000	i_84_a1.4	dec_leave	1.000000	25.000000	1.400000	84.000000	1	0	8.5	1.441000
3.000000	i_84_a1.4	feedback	1	n/a	1.400000	84.000000	n/a	n/a	n/a	18.977000
4.000000	i_113_a1.2	dec_stay	1.000000	21.000000	1.200000	113.000000	1	1	8.5	1.946000
4.000000	i_113_a1.2	feedback	1	n/a	1.200000	113.000000	n/a	n/a	n/a	1.883000
5.000000	i_116_a1.4	dec_leave	1.000000	34.000000	1.400000	116.000000	0	0	0	2.693000
5.000000	i_116_a1.4	feedback	1	n/a	1.400000	116.000000	n/a	n/a	n/a	2.135000
6.000000	e_59_a1.4	dec_learn	1.000000	0.000000	1.400000	59.000000	n/a	n/a	n/a	1.387000
6.000000	e_59_a1.4	dec_learn	2.000000	1.000000	1.400000	59.000000	n/a	n/a	n/a	1.824000
6.000000	e_59_a1.4	dec_learn	3.000000	2.000000	1.400000	59.000000	n/a	n/a	n/a	1.294000
6.000000	e_59_a1.4	dec_learn	4.000000	3.000000	1.400000	59.000000	n/a	n/a	n/a	1.100000
6.000000	e_59_a1.4	dec_stay	5.000000	5.000000	1.400000	59.000000	0	1	0	1.313000
6.000000	e_59_a1.4	feedback	5	n/a	1.400000	59.000000	n/a	n/a	n/a	25.302000
7.000000	e_78_a1.2	dec_stay	1.000000	2.000000	1.200000	78.000000	0	1	0	3.688000
7.000000	e_78_a1.2	feedback	1	n/a	1.200000	78.000000	n/a	n/a	n/a	3.115000
8.000000	e_127_a1.2	dec_leave	1.000000	3.000000	1.200000	127.000000	0	0	0	1.205000
8.000000	e_127_a1.2	feedback	1	n/a	1.200000	127.000000	n/a	n/a	n/a	2.039000
9.000000	i_88_a1.2	dec_learn	1.000000	16.000000	1.200000	88.000000	n/a	n/a	n/a	0.977000
9.000000	i_88_a1.2	dec_learn	2.000000	30.000000	1.200000	88.000000	n/a	n/a	n/a	0.964000
9.000000	i_88_a1.2	dec_learn	3.000000	42.000000	1.200000	88.000000	n/a	n/a	n/a	0.715000
9.000000	i_88_a1.2	dec_leave	4.000000	51.000000	1.200000	88.000000	1	0	7	2.119000
9.000000	i_88_a1.2	feedback	4	n/a	1.200000	88.000000	n/a	n/a	n/a	2.418000
10.000000	e_59_a1.4	dec_stay	1.000000	0.000000	1.400000	59.000000	0	1	0	1.313000
10.000000	e_59_a1.4	feedback	1	n/a	1.400000	59.000000	n/a	n/a	n/a	4.397000
11.000000	i_84_a1.4	dec_learn	1.000000	25.000000	1.400000	84.000000	n/a	n/a	n/a	1.970000
11.000000	i_84_a1.4	dec_learn	2.000000	42.000000	1.400000	84.000000	n/a	n/a	n/a	1.641000
11.000000	i_84_a1.4	dec_stay	3.000000	55.000000	1.400000	84.000000	0	1	0	1.215000
11.000000	i_84_a1.4	feedback	3	n/a	1.400000	84.000000	n/a	n/a	n/a	77.218000
12.000000	e_127_a1.2	dec_stay	1.000000	3.000000	1.200000	127.000000	1	1	8.5	1.450000
12.000000	e_127_a1.2	feedback	1	n/a	1.200000	127.000000	n/a	n/a	n/a	1.984000
13.000000	e_127_a1.2	dec_stay	1.000000	3.000000	1.200000	127.000000	1	1	8.5	1.102000
13.000000	e_127_a1.2	feedback	1	n/a	1.200000	127.000000	n/a	n/a	n/a	5.140000
14.000000	e_78_a1.2	dec_leave	1.000000	2.000000	1.200000	78.000000	1	0	8.5	1.927000
14.000000	e_78_a1.2	feedback	1	n/a	1.200000	78.000000	n/a	n/a	n/a	2.816000
15.000000	e_166_a1.4	dec_stay	1.000000	1.000000	1.400000	166.000000	1	1	8.5	2.357000
15.000000	e_166_a1.4	feedback	1	n/a	1.400000	166.000000	n/a	n/a	n/a	2.133000
16.000000	i_116_a1.4	dec_learn	1.000000	34.000000	1.400000	116.000000	n/a	n/a	n/a	1.554000
16.000000	i_116_a1.4	dec_learn	2.000000	58.000000	1.400000	116.000000	n/a	n/a	n/a	1.164000
16.000000	i_116_a1.4	dec_learn	3.000000	75.000000	1.400000	116.000000	n/a	n/a	n/a	1.639000
16.000000	i_116_a1.4	dec_learn	4.000000	87.000000	1.400000	116.000000	n/a	n/a	n/a	1.923000
16.000000	i_116_a1.4	dec_learn	5.000000	87.000000	1.400000	116.000000	n/a	n/a	n/a	2.140000
16.000000	i_116_a1.4	dec_stay	6.000000	102.000000	1.400000	116.000000	1	1	6	1.212000
16.000000	i_116_a1.4	feedback	6	n/a	1.400000	116.000000	n/a	n/a	n/a	6.265000
17.000000	e_59_a1.4	dec_leave	1.000000	0.000000	1.400000	59.000000	1	0	8.5	2.537000
17.000000	e_59_a1.4	feedback	1	n/a	1.400000	59.000000	n/a	n/a	n/a	5.754000
18.000000	e_166_a1.4	dec_stay	1.000000	1.000000	1.400000	166.000000	1	1	8.5	2.308000
18.000000	e_166_a1.4	feedback	1	n/a	1.400000	166.000000	n/a	n/a	n/a	1.950000
19.000000	i_84_a1.4	dec_leave	1.000000	25.000000	1.400000	84.000000	1	0	8.5	54.129000
19.000000	i_84_a1.4	feedback	1	n/a	1.400000	84.000000	n/a	n/a	n/a	1.883000
20.000000	i_116_a1.4	dec_learn	1.000000	34.000000	1.400000	116.000000	n/a	n/a	n/a	2.186000
20.000000	i_116_a1.4	dec_learn	2.000000	58.000000	1.400000	116.000000	n/a	n/a	n/a	0.714000
20.000000	i_116_a1.4	dec_learn	3.000000	75.000000	1.400000	116.000000	n/a	n/a	n/a	0.497000
20.000000	i_116_a1.4	dec_learn	4.000000	87.000000	1.400000	116.000000	n/a	n/a	n/a	0.861000
20.000000	i_116_a1.4	dec_learn	5.000000	96.000000	1.400000	116.000000	n/a	n/a	n/a	0.610000
20.000000	i_116_a1.4	dec_stay	6.000000	102.000000	1.400000	116.000000	1	1	6	4.968000
20.000000	i_116_a1.4	feedback	6	n/a	1.400000	116.000000	n/a	n/a	n/a	1.817000
21.000000	i_88_a1.2	dec_stay	1.000000	16.000000	1.200000	88.000000	0	1	0	6.223000
21.000000	i_88_a1.2	feedback	1	n/a	1.200000	88.000000	n/a	n/a	n/a	2.946000
22.000000	e_166_a1.4	dec_learn	1.000000	1.000000	1.400000	166.000000	n/a	n/a	n/a	1.634000
22.000000	e_166_a1.4	dec_leave	2.000000	3.000000	1.400000	166.000000	0	0	0	1.319000
22.000000	e_166_a1.4	feedback	2	n/a	1.400000	166.000000	n/a	n/a	n/a	4.138000
23.000000	i_113_a1.2	dec_stay	1.000000	21.000000	1.200000	113.000000	1	1	8.5	1.628000
23.000000	i_113_a1.2	feedback	1	n/a	1.200000	113.000000	n/a	n/a	n/a	2.187000
24.000000	i_88_a1.2	dec_stay	1.000000	16.000000	1.200000	88.000000	0	1	0	1.660000
24.000000	i_88_a1.2	feedback	1	n/a	1.200000	88.000000	n/a	n/a	n/a	2.945000
