block	trial_type	phase	turn	tokens	alpha	final_value	correct	stay	earnings	response_time
1.000000	i_84_a1.4	dec_learn	1.000000	25.000000	1.400000	84.000000	n/a	n/a	n/a	3.076
1.000000	i_84_a1.4	dec_learn	2.000000	42.000000	1.400000	84.000000	n/a	n/a	n/a	10.568
1.000000	i_84_a1.4	dec_learn	3.000000	55.000000	1.400000	84.000000	n/a	n/a	n/a	5.182
1.000000	i_84_a1.4	dec_learn	4.000000	64.000000	1.400000	84.000000	n/a	n/a	n/a	4.014
1.000000	i_84_a1.4	dec_learn	5.000000	70.000000	1.400000	84.000000	n/a	n/a	n/a	42.49
1.000000	i_84_a1.4	dec_leave	6.000000	75.000000	1.400000	84.000000	1	0	6	1.194
1.000000	i_84_a1.4	feedback	6	n/a	1.400000	84.000000	n/a	n/a	n/a	4.294
2.000000	e_127_a1.2	dec_learn	1.000000	3.000000	1.200000	127.000000	n/a	n/a	n/a	6.682
2.000000	e_127_a1.2	dec_learn	2.000000	7.000000	1.200000	127.000000	n/a	n/a	n/a	5.629
2.000000	e_127_a1.2	dec_learn	3.000000	12.000000	1.200000	127.000000	n/a	n/a	n/a	3.817
2.000000	e_127_a1.2	dec_learn	4.000000	17.000000	1.200000	127.000000	n/a	n/a	n/a	6.883
2.000000	e_127_a1.2	dec_learn	5.000000	24.000000	1.200000	127.000000	n/a	n/a	n/a	4.08
2.000000	e_127_a1.2	dec_stay	6.000000	32.000000	1.200000	127.000000	1	1	6	57.846
2.000000	e_127_a1.2	feedback	6	n/a	1.200000	127.000000	n/a	n/a	n/a	4.688
3.000000	e_127_a1.2	dec_learn	1.000000	3.000000	1.200000	127.000000	n/a	n/a	n/a	6.182
3.000000	e_127_a1.2	dec_learn	2.000000	7.000000	1.200000	127.000000	n/a	n/a	n/a	6.077
3.000000	e_127_a1.2	dec_learn	3.000000	12.000000	1.200000	127.000000	n/a	n/a	n/a	4.714
3.000000	e_127_a1.2	dec_learn	4.000000	17.000000	1.200000	127.000000	n/a	n/a	n/a	5.893
3.000000	e_127_a1.2	dec_stay	5.000000	24.000000	1.200000	127.000000	1	1	6.5	2.896
3.000000	e_127_a1.2	feedback	5	n/a	1.200000	127.000000	n/a	n/a	n/a	3.094
4.000000	i_116_a1.4	dec_learn	1.000000	34.000000	1.400000	116.000000	n/a	n/a	n/a	5.889
4.000000	i_116_a1.4	dec_learn	2.000000	58.000000	1.400000	116.000000	n/a	n/a	n/a	4.399
4.000000	i_116_a1.4	dec_learn	3.000000	75.000000	1.400000	116.000000	n/a	n/a	n/a	7.511
4.000000	i_116_a1.4	dec_stay	4.000000	87.000000	1.400000	116.000000	1	1	7	4.584
4.000000	i_116_a1.4	feedback	4	n/a	1.400000	116.000000	n/a	n/a	n/a	2.021
5.000000	e_127_a1.2	dec_learn	1.000000	3.000000	1.200000	127.000000	n/a	n/a	n/a	4.977
5.000000	e_127_a1.2	dec_learn	2.000000	7.000000	1.200000	127.000000	n/a	n/a	n/a	2.034
5.000000	e_127_a1.2	dec_learn	3.000000	12.000000	1.200000	127.000000	n/a	n/a	n/a	1.574
5.000000	e_127_a1.2	dec_learn	4.000000	17.000000	1.200000	127.000000	n/a	n/a	n/a	7.261
5.000000	e_127_a1.2	dec_learn	5.000000	24.000000	1.200000	127.000000	n/a	n/a	n/a	5.317
5.000000	e_127_a1.2	dec_leave	6.000000	32.000000	1.200000	127.000000	0	0	0	18.116
5.000000	e_127_a1.2	feedback	6	n/a	1.200000	127.000000	n/a	n/a	n/a	2.714
6.000000	e_166_a1.4	dec_learn	1.000000	1.000000	1.400000	166.000000	n/a	n/a	n/a	7.084
6.000000	e_166_a1.4	dec_learn	2.000000	3.000000	1.400000	166.000000	n/a	n/a	n/a	4.052
6.000000	e_166_a1.4	dec_learn	3.000000	5.000000	1.400000	166.000000	n/a	n/a	n/a	2.064
6.000000	e_166_a1.4	dec_learn	4.000000	9.000000	1.400000	166.000000	n/a	n/a	n/a	5.223
6.000000	e_166_a1.4	dec_learn	5.000000	13.000000	1.400000	166.000000	n/a	n/a	n/a	7.321
6.000000	e_166_a1.4	dec_leave	6.000000	19.000000	1.400000	166.000000	0	0	0	18.663
6.000000	e_166_a1.4	feedback	6	n/a	1.400000	166.000000	n/a	n/a	n/a	2.677
7.000000	e_78_a1.2	dec_learn	1.000000	2.000000	1.200000	78.000000	n/a	n/a	n/a	8.741
7.000000	e_78_a1.2	dec_learn	2.000000	4.000000	1.200000	78.000000	n/a	n/a	n/a	4.544
7.000000	e_78_a1.2	dec_learn	3.000000	7.000000	1.200000	78.000000	n/a	n/a	n/a	5.821
7.000000	e_78_a1.2	dec_learn	4.000000	11.000000	1.200000	78.000000	n/a	n/a	n/a	5.08
7.000000	e_78_a1.2	dec_learn	5.000000	15.000000	1.200000	78.000000	n/a	n/a	n/a	5.48
7.000000	e_78_a1.2	dec_leave	6.000000	20.000000	1.200000	78.000000	1	0	6	25.605
7.000000	e_78_a1.2	feedback	6	n/a	1.200000	78.000000	n/a	n/a	n/a	1.975
8.000000	i_88_a1.2	dec_learn	1.000000	16.000000	1.200000	88.000000	n/a	n/a	n/a	3.331
8.000000	i_88_a1.2	dec_learn	2.000000	30.000000	1.200000	88.000000	n/a	n/a	n/a	2.918
8.000000	i_88_a1.2	dec_learn	3.000000	42.000000	1.200000	88.000000	n/a	n/a	n/a	6.346
8.000000	i_88_a1.2	dec_learn	4.000000	51.000000	1.200000	88.000000	n/a	n/a	n/a	4.754
8.000000	i_88_a1.2	dec_learn	5.000000	59.000000	1.200000	88.000000	n/a	n/a	n/a	22.361
8.000000	i_88_a1.2	dec_leave	6.000000	66.000000	1.200000	88.000000	1	0	6	7.759
8.000000	i_88_a1.2	feedback	6	n/a	1.200000	88.000000	n/a	n/a	n/a	4.996
9.000000	i_116_a1.4	dec_learn	1.000000	34.000000	1.400000	116.000000	n/a	n/a	n/a	21.828
9.000000	i_116_a1.4	dec_learn	2.000000	58.000000	1.400000	116.000000	n/a	n/a	n/a	3.925
9.000000	i_116_a1.4	dec_learn	3.000000	75.000000	1.400000	116.000000	n/a	n/a	n/a	1.698
9.000000	i_116_a1.4	dec_learn	4.000000	87.000000	1.400000	116.000000	n/a	n/a	n/a	4.885
9.000000	i_116_a1.4	dec_stay	5.000000	96.000000	1.400000	116.000000	1	1	6.5	2.539
9.000000	i_116_a1.4	feedback	5	n/a	1.400000	116.000000	n/a	n/a	n/a	5.056
10.000000	i_84_a1.4	dec_learn	1.000000	25.000000	1.400000	84.000000	n/a	n/a	n/a	3.77
10.000000	i_84_a1.4	dec_learn	2.000000	42.000000	1.400000	84.000000	n/a	n/a	n/a	10.679
10.000000	i_84_a1.4	dec_learn	3.000000	55.000000	1.400000	84.000000	n/a	n/a	n/a	3.743
10.000000	i_84_a1.4	dec_learn	4.000000	64.000000	1.400000	84.000000	n/a	n/a	n/a	4.022
10.000000	i_84_a1.4	dec_leave	5.000000	70.000000	1.400000	84.000000	1	0	6.5	22.588
10.000000	i_84_a1.4	feedback	5	n/a	1.400000	84.000000	n/a	n/a	n/a	2.047
11.000000	e_59_a1.4	dec_learn	1.000000	0.000000	1.400000	59.000000	n/a	n/a	n/a	3.009
11.000000	e_59_a1.4	dec_learn	2.000000	1.000000	1.400000	59.000000	n/a	n/a	n/a	2.858
11.000000	e_59_a1.4	dec_learn	3.000000	2.000000	1.400000	59.000000	n/a	n/a	n/a	2.4
11.000000	e_59_a1.4	dec_learn	4.000000	3.000000	1.400000	59.000000	n/a	n/a	n/a	5.828
11.000000	e_59_a1.4	dec_learn	5.000000	5.000000	1.400000	59.000000	n/a	n/a	n/a	4.025
11.000000	e_59_a1.4	dec_leave	6.000000	7.000000	1.400000	59.000000	1	0	6	5.946
11.000000	e_59_a1.4	feedback	6	n/a	1.400000	59.000000	n/a	n/a	n/a	2.019
12.000000	e_166_a1.4	dec_learn	1.000000	1.000000	1.400000	166.000000	n/a	n/a	n/a	4.031
12.000000	e_166_a1.4	dec_learn	2.000000	3.000000	1.400000	166.000000	n/a	n/a	n/a	1.726
12.000000	e_166_a1.4	dec_learn	3.000000	5.000000	1.400000	166.000000	n/a	n/a	n/a	1.691
12.000000	e_166_a1.4	dec_learn	4.000000	9.000000	1.400000	166.000000	n/a	n/a	n/a	14.024
12.000000	e_166_a1.4	dec_learn	5.000000	13.000000	1.400000	166.000000	n/a	n/a	n/a	3.659
12.000000	e_166_a1.4	dec_leave	6.000000	19.000000	1.400000	166.000000	0	0	0	5.356
12.000000	e_166_a1.4	feedback	6	n/a	1.400000	166.000000	n/a	n/a	n/a	8.127
13.000000	i_113_a1.2	dec_learn	1.000000	21.000000	1.200000	113.000000	n/a	n/a	n/a	5.871
13.000000	i_113_a1.2	dec_learn	2.000000	39.000000	1.200000	113.000000	n/a	n/a	n/a	4.375
13.000000	i_113_a1.2	dec_learn	3.000000	53.000000	1.200000	113.000000	n/a	n/a	n/a	4.92
13.000000	i_113_a1.2	dec_leave	4.000000	66.000000	1.200000	113.000000	0	0	0	19.516
13.000000	i_113_a1.2	feedback	4	n/a	1.200000	113.000000	n/a	n/a	n/a	2.468
14.000000	i_88_a1.2	dec_learn	1.000000	16.000000	1.200000	88.000000	n/a	n/a	n/a	5.698
14.000000	i_88_a1.2	dec_learn	2.000000	30.000000	1.200000	88.000000	n/a	n/a	n/a	4.309
14.000000	i_88_a1.2	dec_learn	3.000000	42.000000	1.200000	88.000000	n/a	n/a	n/a	3.885
14.000000	i_88_a1.2	dec_learn	4.000000	51.000000	1.200000	88.000000	n/a	n/a	n/a	4.275
14.000000	i_88_a1.2	dec_learn	5.000000	59.000000	1.200000	88.000000	n/a	n/a	n/a	4.244
14.000000	i_88_a1.2	dec_leave	6.000000	66.000000	1.200000	88.000000	1	0	6	22.449
14.000000	i_88_a1.2	feedback	6	n/a	1.200000	88.000000	n/a	n/a	n/a	4.489
15.000000	i_84_a1.4	dec_learn	1.000000	25.000000	1.400000	84.000000	n/a	n/a	n/a	3.952
15.000000	i_84_a1.4	dec_learn	2.000000	42.000000	1.400000	84.000000	n/a	n/a	n/a	1.923
15.000000	i_84_a1.4	dec_learn	3.000000	55.000000	1.400000	84.000000	n/a	n/a	n/a	7.495
15.000000	i_84_a1.4	dec_learn	4.000000	64.000000	1.400000	84.000000	n/a	n/a	n/a	40.63
15.000000	i_84_a1.4	dec_learn	5.000000	70.000000	1.400000	84.000000	n/a	n/a	n/a	17.629
15.000000	i_84_a1.4	dec_stay	6.000000	75.000000	1.400000	84.000000	0	1	0	19.471
15.000000	i_84_a1.4	feedback	6	n/a	1.400000	84.000000	n/a	n/a	n/a	4.459
16.000000	e_166_a1.4	dec_learn	1.000000	1.000000	1.400000	166.000000	n/a	n/a	n/a	3.008
16.000000	e_166_a1.4	dec_learn	2.000000	3.000000	1.400000	166.000000	n/a	n/a	n/a	2.459
16.000000	e_166_a1.4	dec_learn	3.000000	5.000000	1.400000	166.000000	n/a	n/a	n/a	1.641
16.000000	e_166_a1.4	dec_learn	4.000000	9.000000	1.400000	166.000000	n/a	n/a	n/a	3.365
16.000000	e_166_a1.4	dec_learn	5.000000	13.000000	1.400000	166.000000	n/a	n/a	n/a	23.397
16.000000	e_166_a1.4	dec_leave	6.000000	19.000000	1.400000	166.000000	0	0	0	4.368
16.000000	e_166_a1.4	feedback	6	n/a	1.400000	166.000000	n/a	n/a	n/a	4.648
17.000000	i_113_a1.2	dec_learn	1.000000	21.000000	1.200000	113.000000	n/a	n/a	n/a	4.86
17.000000	i_113_a1.2	dec_learn	2.000000	39.000000	1.200000	113.000000	n/a	n/a	n/a	5.401
17.000000	i_113_a1.2	dec_learn	3.000000	53.000000	1.200000	113.000000	n/a	n/a	n/a	24.102
17.000000	i_113_a1.2	dec_learn	4.000000	66.000000	1.200000	113.000000	n/a	n/a	n/a	4.76
17.000000	i_113_a1.2	dec_learn	5.000000	76.000000	1.200000	113.000000	n/a	n/a	n/a	4.12
17.000000	i_113_a1.2	dec_stay	6.000000	84.000000	1.200000	113.000000	1	1	6	54.177
17.000000	i_113_a1.2	feedback	6	n/a	1.200000	113.000000	n/a	n/a	n/a	4.249
18.000000	e_59_a1.4	dec_learn	1.000000	0.000000	1.400000	59.000000	n/a	n/a	n/a	8.245
18.000000	e_59_a1.4	dec_learn	2.000000	1.000000	1.400000	59.000000	n/a	n/a	n/a	1.973
18.000000	e_59_a1.4	dec_learn	3.000000	2.000000	1.400000	59.000000	n/a	n/a	n/a	1.309
18.000000	e_59_a1.4	dec_learn	4.000000	3.000000	1.400000	59.000000	n/a	n/a	n/a	2.172
18.000000	e_59_a1.4	dec_learn	5.000000	5.000000	1.400000	59.000000	n/a	n/a	n/a	1.34
18.000000	e_59_a1.4	dec_leave	6.000000	7.000000	1.400000	59.000000	1	0	6	7.837
18.000000	e_59_a1.4	feedback	6	n/a	1.400000	59.000000	n/a	n/a	n/a	1.883
19.000000	i_113_a1.2	dec_learn	1.000000	21.000000	1.200000	113.000000	n/a	n/a	n/a	3.668
19.000000	i_113_a1.2	dec_learn	2.000000	39.000000	1.200000	113.000000	n/a	n/a	n/a	6.28
19.000000	i_113_a1.2	dec_learn	3.000000	53.000000	1.200000	113.000000	n/a	n/a	n/a	2.6
19.000000	i_113_a1.2	dec_learn	4.000000	66.000000	1.200000	113.000000	n/a	n/a	n/a	5.183
19.000000	i_113_a1.2	dec_leave	5.000000	76.000000	1.200000	113.000000	0	0	0	9.465
19.000000	i_113_a1.2	feedback	5	n/a	1.200000	113.000000	n/a	n/a	n/a	2.364
20.000000	i_88_a1.2	dec_learn	1.000000	16.000000	1.200000	88.000000	n/a	n/a	n/a	3.016
20.000000	i_88_a1.2	dec_learn	2.000000	30.000000	1.200000	88.000000	n/a	n/a	n/a	1.956
20.000000	i_88_a1.2	dec_learn	3.000000	42.000000	1.200000	88.000000	n/a	n/a	n/a	1.341
20.000000	i_88_a1.2	dec_learn	4.000000	51.000000	1.200000	88.000000	n/a	n/a	n/a	1.752
20.000000	i_88_a1.2	dec_learn	5.000000	59.000000	1.200000	88.000000	n/a	n/a	n/a	1.856
20.000000	i_88_a1.2	dec_leave	6.000000	66.000000	1.200000	88.000000	1	0	6	1.627
20.000000	i_88_a1.2	feedback	6	n/a	1.200000	88.000000	n/a	n/a	n/a	4.624
21.000000	e_78_a1.2	dec_learn	1.000000	2.000000	1.200000	78.000000	n/a	n/a	n/a	2.526
21.000000	e_78_a1.2	dec_learn	2.000000	4.000000	1.200000	78.000000	n/a	n/a	n/a	1.427
21.000000	e_78_a1.2	dec_learn	3.000000	7.000000	1.200000	78.000000	n/a	n/a	n/a	1.617
21.000000	e_78_a1.2	dec_learn	4.000000	11.000000	1.200000	78.000000	n/a	n/a	n/a	2.425
21.000000	e_78_a1.2	dec_learn	5.000000	15.000000	1.200000	78.000000	n/a	n/a	n/a	1.939
21.000000	e_78_a1.2	dec_leave	6.000000	20.000000	1.200000	78.000000	1	0	6	2.317
21.000000	e_78_a1.2	feedback	6	n/a	1.200000	78.000000	n/a	n/a	n/a	2.04
22.000000	e_59_a1.4	dec_learn	1.000000	0.000000	1.400000	59.000000	n/a	n/a	n/a	3.022
22.000000	e_59_a1.4	dec_learn	2.000000	1.000000	1.400000	59.000000	n/a	n/a	n/a	2.208
22.000000	e_59_a1.4	dec_learn	3.000000	2.000000	1.400000	59.000000	n/a	n/a	n/a	1.155
22.000000	e_59_a1.4	dec_learn	4.000000	3.000000	1.400000	59.000000	n/a	n/a	n/a	1.037
22.000000	e_59_a1.4	dec_learn	5.000000	5.000000	1.400000	59.000000	n/a	n/a	n/a	1.062
22.000000	e_59_a1.4	dec_leave	6.000000	7.000000	1.400000	59.000000	1	0	6	2.655
22.000000	e_59_a1.4	feedback	6	n/a	1.400000	59.000000	n/a	n/a	n/a	2.686
23.000000	i_116_a1.4	dec_learn	1.000000	34.000000	1.400000	116.000000	n/a	n/a	n/a	2.239
23.000000	i_116_a1.4	dec_learn	2.000000	58.000000	1.400000	116.000000	n/a	n/a	n/a	1.484
23.000000	i_116_a1.4	dec_stay	3.000000	75.000000	1.400000	116.000000	1	1	7.5	2.961
23.000000	i_116_a1.4	feedback	3	n/a	1.400000	116.000000	n/a	n/a	n/a	3.753
24.000000	e_78_a1.2	dec_learn	1.000000	2.000000	1.200000	78.000000	n/a	n/a	n/a	3.882
24.000000	e_78_a1.2	dec_learn	2.000000	4.000000	1.200000	78.000000	n/a	n/a	n/a	1.219
24.000000	e_78_a1.2	dec_learn	3.000000	7.000000	1.200000	78.000000	n/a	n/a	n/a	0.968
24.000000	e_78_a1.2	dec_learn	4.000000	11.000000	1.200000	78.000000	n/a	n/a	n/a	1.025
24.000000	e_78_a1.2	dec_learn	5.000000	15.000000	1.200000	78.000000	n/a	n/a	n/a	1.646
24.000000	e_78_a1.2	dec_leave	6.000000	20.000000	1.200000	78.000000	1	0	6	2.485
24.000000	e_78_a1.2	feedback	6	n/a	1.200000	78.000000	n/a	n/a	n/a	2.024
