block	trial_type	phase	turn	tokens	alpha	final_value	correct	stay	earnings	response_time
1.000000	i_84_a1.4	dec_learn	1.000000	25.000000	1.400000	84.000000	n/a	n/a	n/a	2.268000
1.000000	i_84_a1.4	dec_learn	2.000000	42.000000	1.400000	84.000000	n/a	n/a	n/a	1.301000
1.000000	i_84_a1.4	dec_learn	3.000000	55.000000	1.400000	84.000000	n/a	n/a	n/a	1.669000
1.000000	i_84_a1.4	dec_learn	4.000000	64.000000	1.400000	84.000000	n/a	n/a	n/a	1.926000
1.000000	i_84_a1.4	dec_learn	5.000000	70.000000	1.400000	84.000000	n/a	n/a	n/a	1.893000
1.000000	i_84_a1.4	dec_leave	6.000000	75.000000	1.400000	84.000000	1	0	6	3.650000
1.000000	i_84_a1.4	feedback	6	n/a	1.400000	84.000000	n/a	n/a	n/a	2.601000
2.000000	i_113_a1.2	dec_learn	1.000000	21.000000	1.200000	113.000000	n/a	n/a	n/a	2.432000
2.000000	i_113_a1.2	dec_learn	2.000000	39.000000	1.200000	113.000000	n/a	n/a	n/a	1.623000
2.000000	i_113_a1.2	dec_learn	3.000000	53.000000	1.200000	113.000000	n/a	n/a	n/a	1.382000
2.000000	i_113_a1.2	dec_learn	4.000000	66.000000	1.200000	113.000000	n/a	n/a	n/a	1.342000
2.000000	i_113_a1.2	dec_learn	5.000000	76.000000	1.200000	113.000000	n/a	n/a	n/a	1.200000
2.000000	i_113_a1.2	dec_stay	6.000000	84.000000	1.200000	113.000000	1	1	6	1.774000
2.000000	i_113_a1.2	feedback	6	n/a	1.200000	113.000000	n/a	n/a	n/a	4.179000
3.000000	e_166_a1.4	dec_learn	1.000000	1.000000	1.400000	166.000000	n/a	n/a	n/a	4.788000
3.000000	e_166_a1.4	dec_leave	2.000000	3.000000	1.400000	166.000000	0	0	0	2.194000
3.000000	e_166_a1.4	feedback	2	n/a	1.400000	166.000000	n/a	n/a	n/a	9.523000
4.000000	i_84_a1.4	dec_learn	1.000000	25.000000	1.400000	84.000000	n/a	n/a	n/a	2.926000
4.000000	i_84_a1.4	dec_learn	2.000000	42.000000	1.400000	84.000000	n/a	n/a	n/a	2.141000
4.000000	i_84_a1.4	dec_stay	3.000000	55.000000	1.400000	84.000000	0	1	0	2.501000
5.000000	e_166_a1.4	dec_learn	1.000000	1.000000	1.400000	166.000000	n/a	n/a	n/a	1.978000
5.000000	e_166_a1.4	dec_learn	2.000000	3.000000	1.400000	166.000000	n/a	n/a	n/a	1.401000
5.000000	e_166_a1.4	dec_learn	3.000000	5.000000	1.400000	166.000000	n/a	n/a	n/a	2.093000
5.000000	e_166_a1.4	dec_learn	4.000000	9.000000	1.400000	166.000000	n/a	n/a	n/a	1.901000
5.000000	e_166_a1.4	dec_leave	5.000000	13.000000	1.400000	166.000000	0	0	0	1.876000
5.000000	e_166_a1.4	feedback	5	n/a	1.400000	166.000000	n/a	n/a	n/a	1.661000
6.000000	i_88_a1.2	dec_learn	1.000000	16.000000	1.200000	88.000000	n/a	n/a	n/a	5.148000
6.000000	i_88_a1.2	dec_learn	2.000000	30.000000	1.200000	88.000000	n/a	n/a	n/a	1.656000
6.000000	i_88_a1.2	dec_stay	3.000000	42.000000	1.200000	88.000000	0	1	0	1.739000
6.000000	i_88_a1.2	feedback	3	n/a	1.200000	88.000000	n/a	n/a	n/a	3.182000
7.000000	e_127_a1.2	dec_learn	1.000000	3.000000	1.200000	127.000000	n/a	n/a	n/a	1.673000
7.000000	e_127_a1.2	dec_learn	2.000000	7.000000	1.200000	127.000000	n/a	n/a	n/a	1.285000
7.000000	e_127_a1.2	dec_stay	3.000000	12.000000	1.200000	127.000000	1	1	7.5	1.801000
7.000000	e_127_a1.2	feedback	3	n/a	1.200000	127.000000	n/a	n/a	n/a	3.654000
8.000000	i_113_a1.2	dec_learn	1.000000	21.000000	1.200000	113.000000	n/a	n/a	n/a	2.201000
8.000000	i_113_a1.2	dec_learn	2.000000	39.000000	1.200000	113.000000	n/a	n/a	n/a	1.747000
8.000000	i_113_a1.2	dec_leave	3.000000	53.000000	1.200000	113.000000	0	0	0	1.764000
8.000000	i_113_a1.2	feedback	3	n/a	1.200000	113.000000	n/a	n/a	n/a	1.142000
9.000000	i_113_a1.2	dec_learn	1.000000	21.000000	1.200000	113.000000	n/a	n/a	n/a	1.368000
9.000000	i_113_a1.2	dec_learn	2.000000	39.000000	1.200000	113.000000	n/a	n/a	n/a	1.159000
9.000000	i_113_a1.2	dec_stay	3.000000	53.000000	1.200000	113.000000	1	1	7.5	2.202000
9.000000	i_113_a1.2	feedback	3	n/a	1.200000	113.000000	n/a	n/a	n/a	3.137000
10.000000	e_127_a1.2	dec_learn	1.000000	3.000000	1.200000	127.000000	n/a	n/a	n/a	2.278000
10.000000	e_127_a1.2	dec_leave	2.000000	7.000000	1.200000	127.000000	0	0	0	1.800000
10.000000	e_127_a1.2	feedback	2	n/a	1.200000	127.000000	n/a	n/a	n/a	3.331000
11.000000	e_78_a1.2	dec_learn	1.000000	2.000000	1.200000	78.000000	n/a	n/a	n/a	1.855000
11.000000	e_78_a1.2	dec_learn	2.000000	4.000000	1.200000	78.000000	n/a	n/a	n/a	1.460000
11.000000	e_78_a1.2	dec_leave	3.000000	7.000000	1.200000	78.000000	1	0	7.5	1.601000
11.000000	e_78_a1.2	feedback	3	n/a	1.200000	78.000000	n/a	n/a	n/a	2.370000
12.000000	e_59_a1.4	dec_learn	1.000000	0.000000	1.400000	59.000000	n/a	n/a	n/a	1.679000
12.000000	e_59_a1.4	dec_learn	2.000000	1.000000	1.400000	59.000000	n/a	n/a	n/a	2.765000
12.000000	e_59_a1.4	dec_leave	3.000000	2.000000	1.400000	59.000000	1	0	7.5	1.842000
12.000000	e_59_a1.4	feedback	3	n/a	1.400000	59.000000	n/a	n/a	n/a	2.029000
13.000000	i_88_a1.2	dec_learn	1.000000	16.000000	1.200000	88.000000	n/a	n/a	n/a	2.001000
13.000000	i_88_a1.2	dec_stay	2.000000	30.000000	1.200000	88.000000	0	1	0	2.666000
13.000000	i_88_a1.2	feedback	2	n/a	1.200000	88.000000	n/a	n/a	n/a	1.165000
14.000000	i_84_a1.4	dec_learn	1.000000	25.000000	1.400000	84.000000	n/a	n/a	n/a	6.551000
14.000000	i_84_a1.4	dec_leave	2.000000	42.000000	1.400000	84.000000	1	0	8	2.201000
14.000000	i_84_a1.4	feedback	2	n/a	1.400000	84.000000	n/a	n/a	n/a	3.501000
15.000000	e_127_a1.2	dec_learn	1.000000	3.000000	1.200000	127.000000	n/a	n/a	n/a	2.351000
15.000000	e_127_a1.2	dec_leave	2.000000	7.000000	1.200000	127.000000	0	0	0	2.373000
15.000000	e_127_a1.2	feedback	2	n/a	1.200000	127.000000	n/a	n/a	n/a	1.748000
16.000000	e_59_a1.4	dec_learn	1.000000	0.000000	1.400000	59.000000	n/a	n/a	n/a	1.467000
16.000000	e_59_a1.4	dec_leave	2.000000	1.000000	1.400000	59.000000	1	0	8	2.293000
16.000000	e_59_a1.4	feedback	2	n/a	1.400000	59.000000	n/a	n/a	n/a	1.202000
17.000000	e_78_a1.2	dec_stay	1.000000	2.000000	1.200000	78.000000	0	1	0	4.084000
17.000000	e_78_a1.2	feedback	1	n/a	1.200000	78.000000	n/a	n/a	n/a	2.435000
18.000000	i_116_a1.4	dec_stay	1.000000	34.000000	1.400000	116.000000	1	1	8.5	2.001000
18.000000	i_116_a1.4	feedback	1	n/a	1.400000	116.000000	n/a	n/a	n/a	3.686000
19.000000	i_116_a1.4	dec_learn	1.000000	34.000000	1.400000	116.000000	n/a	n/a	n/a	2.501000
19.000000	i_116_a1.4	dec_stay	2.000000	58.000000	1.400000	116.000000	1	1	8	2.101000
19.000000	i_116_a1.4	feedback	2	n/a	1.400000	116.000000	n/a	n/a	n/a	2.301000
20.000000	e_59_a1.4	dec_learn	1.000000	0.000000	1.400000	59.000000	n/a	n/a	n/a	5.301000
20.000000	e_59_a1.4	dec_leave	2.000000	1.000000	1.400000	59.000000	1	0	8	2.035000
20.000000	e_59_a1.4	feedback	2	n/a	1.400000	59.000000	n/a	n/a	n/a	1.601000
21.000000	e_78_a1.2	dec_learn	1.000000	2.000000	1.200000	78.000000	n/a	n/a	n/a	3.601000
21.000000	e_78_a1.2	dec_stay	2.000000	4.000000	1.200000	78.000000	0	1	0	2.501000
21.000000	e_78_a1.2	feedback	2	n/a	1.200000	78.000000	n/a	n/a	n/a	0.963000
22.000000	e_166_a1.4	dec_learn	1.000000	1.000000	1.400000	166.000000	n/a	n/a	n/a	2.658000
22.000000	e_166_a1.4	dec_learn	2.000000	3.000000	1.400000	166.000000	n/a	n/a	n/a	2.531000
22.000000	e_166_a1.4	dec_leave	3.000000	5.000000	1.400000	166.000000	0	0	0	1.602000
22.000000	e_166_a1.4	feedback	3	n/a	1.400000	166.000000	n/a	n/a	n/a	0.744000
23.000000	i_116_a1.4	dec_learn	1.000000	34.000000	1.400000	116.000000	n/a	n/a	n/a	1.932000
23.000000	i_116_a1.4	dec_stay	2.000000	58.000000	1.400000	116.000000	1	1	8	1.863000
23.000000	i_116_a1.4	feedback	2	n/a	1.400000	116.000000	n/a	n/a	n/a	1.074000
24.000000	i_88_a1.2	dec_learn	1.000000	16.000000	1.200000	88.000000	n/a	n/a	n/a	2.227000
24.000000	i_88_a1.2	dec_learn	2.000000	30.000000	1.200000	88.000000	n/a	n/a	n/a	2.202000
24.000000	i_88_a1.2	dec_leave	3.000000	42.000000	1.200000	88.000000	1	0	7.5	1.801000
24.000000	i_88_a1.2	feedback	3	n/a	1.200000	88.000000	n/a	n/a	n/a	3.698000
