block	trial_type	phase	turn	tokens	alpha	final_value	correct	stay	earnings	response_time
1.000000	e_78_a1.2	dec_learn	1.000000	2.000000	1.200000	78.000000	n/a	n/a	n/a	2.945
1.000000	e_78_a1.2	dec_learn	2.000000	4.000000	1.200000	78.000000	n/a	n/a	n/a	2.639
1.000000	e_78_a1.2	dec_learn	3.000000	7.000000	1.200000	78.000000	n/a	n/a	n/a	2.777
1.000000	e_78_a1.2	dec_learn	4.000000	11.000000	1.200000	78.000000	n/a	n/a	n/a	2.987
1.000000	e_78_a1.2	dec_learn	5.000000	15.000000	1.200000	78.000000	n/a	n/a	n/a	4.457
1.000000	e_78_a1.2	dec_leave	6.000000	20.000000	1.200000	78.000000	1	0	6	7.721
1.000000	e_78_a1.2	feedback	6	n/a	1.200000	78.000000	n/a	n/a	n/a	3.48
2.000000	e_59_a1.4	dec_learn	1.000000	0.000000	1.400000	59.000000	n/a	n/a	n/a	3.072
2.000000	e_59_a1.4	dec_learn	2.000000	1.000000	1.400000	59.000000	n/a	n/a	n/a	2.269
2.000000	e_59_a1.4	dec_learn	3.000000	2.000000	1.400000	59.000000	n/a	n/a	n/a	2.291
2.000000	e_59_a1.4	dec_learn	4.000000	3.000000	1.400000	59.000000	n/a	n/a	n/a	2.181
2.000000	e_59_a1.4	dec_learn	5.000000	5.000000	1.400000	59.000000	n/a	n/a	n/a	3.725
2.000000	e_59_a1.4	dec_leave	6.000000	7.000000	1.400000	59.000000	1	0	6	4.051
2.000000	e_59_a1.4	feedback	6	n/a	1.400000	59.000000	n/a	n/a	n/a	2.368
3.000000	e_127_a1.2	dec_learn	1.000000	3.000000	1.200000	127.000000	n/a	n/a	n/a	2.84
3.000000	e_127_a1.2	dec_learn	2.000000	7.000000	1.200000	127.000000	n/a	n/a	n/a	2.189
3.000000	e_127_a1.2	dec_learn	3.000000	12.000000	1.200000	127.000000	n/a	n/a	n/a	2.991
3.000000	e_127_a1.2	dec_learn	4.000000	17.000000	1.200000	127.000000	n/a	n/a	n/a	2.684
3.000000	e_127_a1.2	dec_learn	5.000000	24.000000	1.200000	127.000000	n/a	n/a	n/a	2.712
3.000000	e_127_a1.2	dec_stay	6.000000	32.000000	1.200000	127.000000	1	1	6	2.184
3.000000	e_127_a1.2	feedback	6	n/a	1.200000	127.000000	n/a	n/a	n/a	2.258
4.000000	i_88_a1.2	dec_learn	1.000000	16.000000	1.200000	88.000000	n/a	n/a	n/a	3.155
4.000000	i_88_a1.2	dec_learn	2.000000	30.000000	1.200000	88.000000	n/a	n/a	n/a	2.215
4.000000	i_88_a1.2	dec_learn	3.000000	42.000000	1.200000	88.000000	n/a	n/a	n/a	2.028
4.000000	i_88_a1.2	dec_stay	4.000000	51.000000	1.200000	88.000000	0	1	0	5.417
4.000000	i_88_a1.2	feedback	4	n/a	1.200000	88.000000	n/a	n/a	n/a	2.331
5.000000	i_116_a1.4	dec_learn	1.000000	34.000000	1.400000	116.000000	n/a	n/a	n/a	3.124
5.000000	i_116_a1.4	dec_learn	2.000000	58.000000	1.400000	116.000000	n/a	n/a	n/a	2.726
5.000000	i_116_a1.4	dec_learn	3.000000	75.000000	1.400000	116.000000	n/a	n/a	n/a	2.46
5.000000	i_116_a1.4	dec_learn	4.000000	87.000000	1.400000	116.000000	n/a	n/a	n/a	3.014
5.000000	i_116_a1.4	dec_stay	5.000000	96.000000	1.400000	116.000000	1	1	6.5	3.167
5.000000	i_116_a1.4	feedback	5	n/a	1.400000	116.000000	n/a	n/a	n/a	2.919
6.000000	i_116_a1.4	dec_learn	1.000000	34.000000	1.400000	116.000000	n/a	n/a	n/a	2.278
6.000000	i_116_a1.4	dec_stay	2.000000	58.000000	1.400000	116.000000	1	1	8	3.665
6.000000	i_116_a1.4	feedback	2	n/a	1.400000	116.000000	n/a	n/a	n/a	2.758
7.000000	e_127_a1.2	dec_learn	1.000000	3.000000	1.200000	127.000000	n/a	n/a	n/a	2.61
7.000000	e_127_a1.2	dec_learn	2.000000	7.000000	1.200000	127.000000	n/a	n/a	n/a	1.965
7.000000	e_127_a1.2	dec_learn	3.000000	12.000000	1.200000	127.000000	n/a	n/a	n/a	3.072
7.000000	e_127_a1.2	dec_leave	4.000000	17.000000	1.200000	127.000000	0	0	0	6.366
7.000000	e_127_a1.2	feedback	4	n/a	1.200000	127.000000	n/a	n/a	n/a	1.973
8.000000	e_127_a1.2	dec_learn	1.000000	3.000000	1.200000	127.000000	n/a	n/a	n/a	2.94
8.000000	e_127_a1.2	dec_learn	2.000000	7.000000	1.200000	127.000000	n/a	n/a	n/a	1.81
8.000000	e_127_a1.2	dec_learn	3.000000	12.000000	1.200000	127.000000	n/a	n/a	n/a	1.813
8.000000	e_127_a1.2	dec_learn	4.000000	17.000000	1.200000	127.000000	n/a	n/a	n/a	2.023
8.000000	e_127_a1.2	dec_learn	5.000000	24.000000	1.200000	127.000000	n/a	n/a	n/a	2.921
8.000000	e_127_a1.2	dec_stay	6.000000	32.000000	1.200000	127.000000	1	1	6	7.86
8.000000	e_127_a1.2	feedback	6	n/a	1.200000	127.000000	n/a	n/a	n/a	2.42
9.000000	i_84_a1.4	dec_stay	1.000000	25.000000	1.400000	84.000000	0	1	0	8.059
9.000000	i_84_a1.4	feedback	1	n/a	1.400000	84.000000	n/a	n/a	n/a	1.802
10.000000	i_88_a1.2	dec_learn	1.000000	16.000000	1.200000	88.000000	n/a	n/a	n/a	4.158
10.000000	i_88_a1.2	dec_stay	2.000000	30.000000	1.200000	88.000000	0	1	0	2.625
10.000000	i_88_a1.2	feedback	2	n/a	1.200000	88.000000	n/a	n/a	n/a	2.091
11.000000	i_84_a1.4	dec_learn	1.000000	25.000000	1.400000	84.000000	n/a	n/a	n/a	2.892
11.000000	i_84_a1.4	dec_stay	2.000000	42.000000	1.400000	84.000000	0	1	0	2.902
11.000000	i_84_a1.4	feedback	2	n/a	1.400000	84.000000	n/a	n/a	n/a	1.944
12.000000	i_84_a1.4	dec_learn	1.000000	25.000000	1.400000	84.000000	n/a	n/a	n/a	2.721
12.000000	i_84_a1.4	dec_learn	2.000000	42.000000	1.400000	84.000000	n/a	n/a	n/a	1.779
12.000000	i_84_a1.4	dec_learn	3.000000	55.000000	1.400000	84.000000	n/a	n/a	n/a	1.642
12.000000	i_84_a1.4	dec_learn	4.000000	64.000000	1.400000	84.000000	n/a	n/a	n/a	1.751
12.000000	i_84_a1.4	dec_learn	5.000000	70.000000	1.400000	84.000000	n/a	n/a	n/a	1.831
12.000000	i_84_a1.4	dec_stay	6.000000	75.000000	1.400000	84.000000	0	1	0	0
12.000000	i_84_a1.4	feedback	6	n/a	1.400000	84.000000	n/a	n/a	n/a	3.637
13.000000	i_116_a1.4	dec_learn	1.000000	34.000000	1.400000	116.000000	n/a	n/a	n/a	3.304
13.000000	i_116_a1.4	dec_learn	2.000000	58.000000	1.400000	116.000000	n/a	n/a	n/a	3.419
13.000000	i_116_a1.4	dec_stay	3.000000	75.000000	1.400000	116.000000	1	1	7.5	2.576
13.000000	i_116_a1.4	feedback	3	n/a	1.400000	116.000000	n/a	n/a	n/a	3.044
14.000000	e_59_a1.4	dec_learn	1.000000	0.000000	1.400000	59.000000	n/a	n/a	n/a	3.293
14.000000	e_59_a1.4	dec_learn	2.000000	1.000000	1.400000	59.000000	n/a	n/a	n/a	2.216
14.000000	e_59_a1.4	dec_stay	3.000000	2.000000	1.400000	59.000000	0	1	0	3.43
14.000000	e_59_a1.4	feedback	3	n/a	1.400000	59.000000	n/a	n/a	n/a	1.991
15.000000	i_113_a1.2	dec_stay	1.000000	21.000000	1.200000	113.000000	1	1	8.5	5.125
15.000000	i_113_a1.2	feedback	1	n/a	1.200000	113.000000	n/a	n/a	n/a	1.9
16.000000	e_78_a1.2	dec_learn	1.000000	2.000000	1.200000	78.000000	n/a	n/a	n/a	6.111
16.000000	e_78_a1.2	dec_stay	2.000000	4.000000	1.200000	78.000000	0	1	0	2.539
16.000000	e_78_a1.2	feedback	2	n/a	1.200000	78.000000	n/a	n/a	n/a	1.625
17.000000	i_88_a1.2	dec_stay	1.000000	16.000000	1.200000	88.000000	0	1	0	4.225
17.000000	i_88_a1.2	feedback	1	n/a	1.200000	88.000000	n/a	n/a	n/a	2.2
18.000000	e_166_a1.4	dec_stay	1.000000	1.000000	1.400000	166.000000	1	1	8.5	4.748
18.000000	e_166_a1.4	feedback	1	n/a	1.400000	166.000000	n/a	n/a	n/a	2.181
19.000000	i_113_a1.2	dec_leave	1.000000	21.000000	1.200000	113.000000	0	0	0	4.062
19.000000	i_113_a1.2	feedback	1	n/a	1.200000	113.000000	n/a	n/a	n/a	1.8
20.000000	e_78_a1.2	dec_leave	1.000000	2.000000	1.200000	78.000000	1	0	8.5	3.702
20.000000	e_78_a1.2	feedback	1	n/a	1.200000	78.000000	n/a	n/a	n/a	2.093
21.000000	e_59_a1.4	dec_stay	1.000000	0.000000	1.400000	59.000000	0	1	0	5.719
21.000000	e_59_a1.4	feedback	1	n/a	1.400000	59.000000	n/a	n/a	n/a	2.108
22.000000	e_166_a1.4	dec_leave	1.000000	1.000000	1.400000	166.000000	0	0	0	3.12
22.000000	e_166_a1.4	feedback	1	n/a	1.400000	166.000000	n/a	n/a	n/a	1.544
23.000000	e_166_a1.4	dec_leave	1.000000	1.000000	1.400000	166.000000	0	0	0	2.785
23.000000	e_166_a1.4	feedback	1	n/a	1.400000	166.000000	n/a	n/a	n/a	1.852
24.000000	i_113_a1.2	dec_stay	1.000000	21.000000	1.200000	113.000000	1	1	8.5	5.29
24.000000	i_113_a1.2	feedback	1	n/a	1.200000	113.000000	n/a	n/a	n/a	2.308
