block	trial_type	phase	turn	tokens	alpha	final_value	correct	stay	earnings	response_time
1.000000	e_166_a1.4	dec_learn	1.000000	1.000000	1.400000	166.000000	n/a	n/a	n/a	6.310000
1.000000	e_166_a1.4	dec_learn	2.000000	3.000000	1.400000	166.000000	n/a	n/a	n/a	2.828000
1.000000	e_166_a1.4	dec_learn	3.000000	5.000000	1.400000	166.000000	n/a	n/a	n/a	2.656000
1.000000	e_166_a1.4	dec_learn	4.000000	9.000000	1.400000	166.000000	n/a	n/a	n/a	4.073000
1.000000	e_166_a1.4	dec_leave	5.000000	13.000000	1.400000	166.000000	0	0	0	5.909000
1.000000	e_166_a1.4	feedback	5	n/a	1.400000	166.000000	n/a	n/a	n/a	11.791000
2.000000	e_59_a1.4	dec_learn	1.000000	0.000000	1.400000	59.000000	n/a	n/a	n/a	32.627000
2.000000	e_59_a1.4	dec_learn	2.000000	1.000000	1.400000	59.000000	n/a	n/a	n/a	2.600000
2.000000	e_59_a1.4	dec_learn	3.000000	2.000000	1.400000	59.000000	n/a	n/a	n/a	1.926000
2.000000	e_59_a1.4	dec_learn	4.000000	3.000000	1.400000	59.000000	n/a	n/a	n/a	1.787000
2.000000	e_59_a1.4	dec_learn	5.000000	5.000000	1.400000	59.000000	n/a	n/a	n/a	1.971000
2.000000	e_59_a1.4	dec_leave	6.000000	7.000000	1.400000	59.000000	1	0	6	3.911000
2.000000	e_59_a1.4	feedback	6	n/a	1.400000	59.000000	n/a	n/a	n/a	12.809000
3.000000	e_59_a1.4	dec_learn	1.000000	0.000000	1.400000	59.000000	n/a	n/a	n/a	3.760000
3.000000	e_59_a1.4	dec_learn	2.000000	1.000000	1.400000	59.000000	n/a	n/a	n/a	1.763000
3.000000	e_59_a1.4	dec_learn	3.000000	2.000000	1.400000	59.000000	n/a	n/a	n/a	1.990000
3.000000	e_59_a1.4	dec_learn	4.000000	3.000000	1.400000	59.000000	n/a	n/a	n/a	1.710000
3.000000	e_59_a1.4	dec_learn	5.000000	5.000000	1.400000	59.000000	n/a	n/a	n/a	2.270000
3.000000	e_59_a1.4	dec_stay	6.000000	7.000000	1.400000	59.000000	0	1	0	4.176000
3.000000	e_59_a1.4	feedback	6	n/a	1.400000	59.000000	n/a	n/a	n/a	5.070000
4.000000	i_116_a1.4	dec_learn	1.000000	34.000000	1.400000	116.000000	n/a	n/a	n/a	47.036000
4.000000	i_116_a1.4	dec_learn	2.000000	58.000000	1.400000	116.000000	n/a	n/a	n/a	2.690000
4.000000	i_116_a1.4	dec_learn	3.000000	75.000000	1.400000	116.000000	n/a	n/a	n/a	2.862000
4.000000	i_116_a1.4	dec_learn	4.000000	87.000000	1.400000	116.000000	n/a	n/a	n/a	2.033000
4.000000	i_116_a1.4	dec_stay	5.000000	96.000000	1.400000	116.000000	1	1	6.5	3.444000
4.000000	i_116_a1.4	feedback	5	n/a	1.400000	116.000000	n/a	n/a	n/a	6.469000
5.000000	i_88_a1.2	dec_learn	1.000000	16.000000	1.200000	88.000000	n/a	n/a	n/a	21.235000
5.000000	i_88_a1.2	dec_learn	2.000000	30.000000	1.200000	88.000000	n/a	n/a	n/a	3.438000
5.000000	i_88_a1.2	dec_learn	3.000000	42.000000	1.200000	88.000000	n/a	n/a	n/a	2.144000
5.000000	i_88_a1.2	dec_learn	4.000000	51.000000	1.200000	88.000000	n/a	n/a	n/a	2.402000
5.000000	i_88_a1.2	dec_learn	5.000000	59.000000	1.200000	88.000000	n/a	n/a	n/a	9.889000
5.000000	i_88_a1.2	dec_leave	6.000000	66.000000	1.200000	88.000000	1	0	6	2.685000
5.000000	i_88_a1.2	feedback	6	n/a	1.200000	88.000000	n/a	n/a	n/a	4.760000
6.000000	i_113_a1.2	dec_learn	1.000000	21.000000	1.200000	113.000000	n/a	n/a	n/a	2.396000
6.000000	i_113_a1.2	dec_learn	2.000000	39.000000	1.200000	113.000000	n/a	n/a	n/a	1.839000
6.000000	i_113_a1.2	dec_learn	3.000000	53.000000	1.200000	113.000000	n/a	n/a	n/a	2.274000
6.000000	i_113_a1.2	dec_learn	4.000000	66.000000	1.200000	113.000000	n/a	n/a	n/a	1.875000
6.000000	i_113_a1.2	dec_learn	5.000000	76.000000	1.200000	113.000000	n/a	n/a	n/a	1.530000
6.000000	i_113_a1.2	dec_stay	6.000000	84.000000	1.200000	113.000000	1	1	6	2.721000
6.000000	i_113_a1.2	feedback	6	n/a	1.200000	113.000000	n/a	n/a	n/a	22.507000
7.000000	e_59_a1.4	dec_learn	1.000000	0.000000	1.400000	59.000000	n/a	n/a	n/a	6.510000
7.000000	e_59_a1.4	dec_learn	2.000000	1.000000	1.400000	59.000000	n/a	n/a	n/a	3.161000
7.000000	e_59_a1.4	dec_learn	3.000000	2.000000	1.400000	59.000000	n/a	n/a	n/a	2.112000
7.000000	e_59_a1.4	dec_learn	4.000000	3.000000	1.400000	59.000000	n/a	n/a	n/a	1.827000
7.000000	e_59_a1.4	dec_learn	5.000000	5.000000	1.400000	59.000000	n/a	n/a	n/a	2.096000
7.000000	e_59_a1.4	dec_leave	6.000000	7.000000	1.400000	59.000000	1	0	6	2.776000
7.000000	e_59_a1.4	feedback	6	n/a	1.400000	59.000000	n/a	n/a	n/a	3.446000
8.000000	e_78_a1.2	dec_learn	1.000000	2.000000	1.200000	78.000000	n/a	n/a	n/a	3.663000
8.000000	e_78_a1.2	dec_learn	2.000000	4.000000	1.200000	78.000000	n/a	n/a	n/a	2.397000
8.000000	e_78_a1.2	dec_learn	3.000000	7.000000	1.200000	78.000000	n/a	n/a	n/a	1.928000
8.000000	e_78_a1.2	dec_learn	4.000000	11.000000	1.200000	78.000000	n/a	n/a	n/a	2.780000
8.000000	e_78_a1.2	dec_learn	5.000000	15.000000	1.200000	78.000000	n/a	n/a	n/a	4.380000
8.000000	e_78_a1.2	dec_stay	6.000000	20.000000	1.200000	78.000000	0	1	0	3.582000
8.000000	e_78_a1.2	feedback	6	n/a	1.200000	78.000000	n/a	n/a	n/a	2.546000
9.000000	e_127_a1.2	dec_learn	1.000000	3.000000	1.200000	127.000000	n/a	n/a	n/a	2.397000
9.000000	e_127_a1.2	dec_learn	2.000000	7.000000	1.200000	127.000000	n/a	n/a	n/a	5.823000
9.000000	e_127_a1.2	dec_learn	3.000000	12.000000	1.200000	127.000000	n/a	n/a	n/a	3.324000
9.000000	e_127_a1.2	dec_learn	4.000000	17.000000	1.200000	127.000000	n/a	n/a	n/a	2.040000
9.000000	e_127_a1.2	dec_learn	5.000000	24.000000	1.200000	127.000000	n/a	n/a	n/a	3.581000
9.000000	e_127_a1.2	dec_stay	6.000000	32.000000	1.200000	127.000000	1	1	6	1.922000
9.000000	e_127_a1.2	feedback	6	n/a	1.200000	127.000000	n/a	n/a	n/a	8.073000
10.000000	i_84_a1.4	dec_learn	1.000000	25.000000	1.400000	84.000000	n/a	n/a	n/a	8.940000
10.000000	i_84_a1.4	dec_learn	2.000000	42.000000	1.400000	84.000000	n/a	n/a	n/a	6.085000
10.000000	i_84_a1.4	dec_learn	3.000000	55.000000	1.400000	84.000000	n/a	n/a	n/a	2.345000
10.000000	i_84_a1.4	dec_stay	4.000000	64.000000	1.400000	84.000000	0	1	0	2.276000
10.000000	i_84_a1.4	feedback	4	n/a	1.400000	84.000000	n/a	n/a	n/a	2.301000
11.000000	e_166_a1.4	dec_learn	1.000000	1.000000	1.400000	166.000000	n/a	n/a	n/a	3.788000
11.000000	e_166_a1.4	dec_learn	2.000000	3.000000	1.400000	166.000000	n/a	n/a	n/a	1.940000
11.000000	e_166_a1.4	dec_learn	3.000000	5.000000	1.400000	166.000000	n/a	n/a	n/a	2.265000
11.000000	e_166_a1.4	dec_learn	4.000000	9.000000	1.400000	166.000000	n/a	n/a	n/a	2.512000
11.000000	e_166_a1.4	dec_learn	5.000000	13.000000	1.400000	166.000000	n/a	n/a	n/a	1.650000
11.000000	e_166_a1.4	dec_leave	6.000000	19.000000	1.400000	166.000000	0	0	0	2.725000
11.000000	e_166_a1.4	feedback	6	n/a	1.400000	166.000000	n/a	n/a	n/a	2.189000
12.000000	e_78_a1.2	dec_learn	1.000000	2.000000	1.200000	78.000000	n/a	n/a	n/a	5.572000
12.000000	e_78_a1.2	dec_learn	2.000000	4.000000	1.200000	78.000000	n/a	n/a	n/a	1.835000
12.000000	e_78_a1.2	dec_learn	3.000000	7.000000	1.200000	78.000000	n/a	n/a	n/a	1.770000
12.000000	e_78_a1.2	dec_learn	4.000000	11.000000	1.200000	78.000000	n/a	n/a	n/a	2.482000
12.000000	e_78_a1.2	dec_stay	5.000000	15.000000	1.200000	78.000000	0	1	0	3.310000
12.000000	e_78_a1.2	feedback	5	n/a	1.200000	78.000000	n/a	n/a	n/a	1.362000
13.000000	e_166_a1.4	dec_learn	1.000000	1.000000	1.400000	166.000000	n/a	n/a	n/a	4.673000
13.000000	e_166_a1.4	dec_learn	2.000000	3.000000	1.400000	166.000000	n/a	n/a	n/a	1.604000
13.000000	e_166_a1.4	dec_learn	3.000000	5.000000	1.400000	166.000000	n/a	n/a	n/a	2.372000
13.000000	e_166_a1.4	dec_learn	4.000000	9.000000	1.400000	166.000000	n/a	n/a	n/a	1.853000
13.000000	e_166_a1.4	dec_learn	5.000000	13.000000	1.400000	166.000000	n/a	n/a	n/a	3.304000
13.000000	e_166_a1.4	dec_stay	6.000000	19.000000	1.400000	166.000000	1	1	6	7.291000
13.000000	e_166_a1.4	feedback	6	n/a	1.400000	166.000000	n/a	n/a	n/a	3.106000
14.000000	i_113_a1.2	dec_learn	1.000000	21.000000	1.200000	113.000000	n/a	n/a	n/a	4.229000
14.000000	i_113_a1.2	dec_learn	2.000000	39.000000	1.200000	113.000000	n/a	n/a	n/a	1.632000
14.000000	i_113_a1.2	dec_learn	3.000000	53.000000	1.200000	113.000000	n/a	n/a	n/a	1.074000
14.000000	i_113_a1.2	dec_learn	4.000000	66.000000	1.200000	113.000000	n/a	n/a	n/a	1.206000
14.000000	i_113_a1.2	dec_learn	5.000000	76.000000	1.200000	113.000000	n/a	n/a	n/a	1.628000
14.000000	i_113_a1.2	dec_stay	6.000000	84.000000	1.200000	113.000000	1	1	6	2.676000
14.000000	i_113_a1.2	feedback	6	n/a	1.200000	113.000000	n/a	n/a	n/a	8.488000
15.000000	i_113_a1.2	dec_learn	1.000000	21.000000	1.200000	113.000000	n/a	n/a	n/a	3.063000
15.000000	i_113_a1.2	dec_learn	2.000000	39.000000	1.200000	113.000000	n/a	n/a	n/a	1.600000
15.000000	i_113_a1.2	dec_learn	3.000000	53.000000	1.200000	113.000000	n/a	n/a	n/a	3.977000
15.000000	i_113_a1.2	dec_learn	4.000000	66.000000	1.200000	113.000000	n/a	n/a	n/a	2.235000
15.000000	i_113_a1.2	dec_learn	5.000000	76.000000	1.200000	113.000000	n/a	n/a	n/a	2.815000
15.000000	i_113_a1.2	dec_stay	6.000000	84.000000	1.200000	113.000000	1	1	6	2.443000
15.000000	i_113_a1.2	feedback	6	n/a	1.200000	113.000000	n/a	n/a	n/a	4.603000
16.000000	i_84_a1.4	dec_learn	1.000000	25.000000	1.400000	84.000000	n/a	n/a	n/a	7.026000
16.000000	i_84_a1.4	dec_learn	2.000000	42.000000	1.400000	84.000000	n/a	n/a	n/a	1.925000
16.000000	i_84_a1.4	dec_learn	3.000000	55.000000	1.400000	84.000000	n/a	n/a	n/a	1.858000
16.000000	i_84_a1.4	dec_learn	4.000000	64.000000	1.400000	84.000000	n/a	n/a	n/a	2.638000
16.000000	i_84_a1.4	dec_learn	5.000000	70.000000	1.400000	84.000000	n/a	n/a	n/a	2.596000
16.000000	i_84_a1.4	dec_leave	6.000000	75.000000	1.400000	84.000000	1	0	6	2.645000
16.000000	i_84_a1.4	feedback	6	n/a	1.400000	84.000000	n/a	n/a	n/a	3.765000
17.000000	e_127_a1.2	dec_learn	1.000000	3.000000	1.200000	127.000000	n/a	n/a	n/a	2.494000
17.000000	e_127_a1.2	dec_learn	2.000000	7.000000	1.200000	127.000000	n/a	n/a	n/a	1.342000
17.000000	e_127_a1.2	dec_learn	3.000000	12.000000	1.200000	127.000000	n/a	n/a	n/a	2.678000
17.000000	e_127_a1.2	dec_learn	4.000000	17.000000	1.200000	127.000000	n/a	n/a	n/a	2.301000
17.000000	e_127_a1.2	dec_learn	5.000000	24.000000	1.200000	127.000000	n/a	n/a	n/a	2.063000
17.000000	e_127_a1.2	dec_stay	6.000000	32.000000	1.200000	127.000000	1	1	6	2.334000
17.000000	e_127_a1.2	feedback	6	n/a	1.200000	127.000000	n/a	n/a	n/a	8.068000
18.000000	i_116_a1.4	dec_learn	1.000000	34.000000	1.400000	116.000000	n/a	n/a	n/a	12.688000
18.000000	i_116_a1.4	dec_learn	2.000000	58.000000	1.400000	116.000000	n/a	n/a	n/a	3.922000
18.000000	i_116_a1.4	dec_learn	3.000000	75.000000	1.400000	116.000000	n/a	n/a	n/a	2.097000
18.000000	i_116_a1.4	dec_learn	4.000000	87.000000	1.400000	116.000000	n/a	n/a	n/a	1.977000
18.000000	i_116_a1.4	dec_learn	5.000000	87.000000	1.400000	116.000000	n/a	n/a	n/a	2.880000
18.000000	i_116_a1.4	dec_stay	6.000000	102.000000	1.400000	116.000000	1	1	6	2.422000
18.000000	i_116_a1.4	feedback	6	n/a	1.400000	116.000000	n/a	n/a	n/a	4.482000
19.000000	i_116_a1.4	dec_learn	1.000000	34.000000	1.400000	116.000000	n/a	n/a	n/a	8.614000
19.000000	i_116_a1.4	dec_learn	2.000000	58.000000	1.400000	116.000000	n/a	n/a	n/a	2.123000
19.000000	i_116_a1.4	dec_learn	3.000000	75.000000	1.400000	116.000000	n/a	n/a	n/a	2.441000
19.000000	i_116_a1.4	dec_learn	4.000000	87.000000	1.400000	116.000000	n/a	n/a	n/a	1.805000
19.000000	i_116_a1.4	dec_stay	5.000000	96.000000	1.400000	116.000000	1	1	6.5	4.044000
19.000000	i_116_a1.4	feedback	5	n/a	1.400000	116.000000	n/a	n/a	n/a	2.677000
20.000000	e_127_a1.2	dec_learn	1.000000	3.000000	1.200000	127.000000	n/a	n/a	n/a	6.014000
20.000000	e_127_a1.2	dec_learn	2.000000	7.000000	1.200000	127.000000	n/a	n/a	n/a	6.342000
20.000000	e_127_a1.2	dec_learn	3.000000	12.000000	1.200000	127.000000	n/a	n/a	n/a	1.958000
20.000000	e_127_a1.2	dec_learn	4.000000	17.000000	1.200000	127.000000	n/a	n/a	n/a	1.839000
20.000000	e_127_a1.2	dec_learn	5.000000	24.000000	1.200000	127.000000	n/a	n/a	n/a	4.935000
20.000000	e_127_a1.2	dec_stay	6.000000	32.000000	1.200000	127.000000	1	1	6	9.284000
20.000000	e_127_a1.2	feedback	6	n/a	1.200000	127.000000	n/a	n/a	n/a	2.710000
21.000000	i_88_a1.2	dec_learn	1.000000	16.000000	1.200000	88.000000	n/a	n/a	n/a	35.211000
21.000000	i_88_a1.2	dec_learn	2.000000	30.000000	1.200000	88.000000	n/a	n/a	n/a	3.109000
21.000000	i_88_a1.2	dec_stay	3.000000	42.000000	1.200000	88.000000	0	1	0	5.403000
21.000000	i_88_a1.2	feedback	3	n/a	1.200000	88.000000	n/a	n/a	n/a	2.363000
22.000000	e_78_a1.2	dec_learn	1.000000	2.000000	1.200000	78.000000	n/a	n/a	n/a	16.888000
22.000000	e_78_a1.2	dec_learn	2.000000	4.000000	1.200000	78.000000	n/a	n/a	n/a	2.183000
22.000000	e_78_a1.2	dec_learn	3.000000	7.000000	1.200000	78.000000	n/a	n/a	n/a	2.471000
22.000000	e_78_a1.2	dec_learn	4.000000	11.000000	1.200000	78.000000	n/a	n/a	n/a	2.565000
22.000000	e_78_a1.2	dec_leave	5.000000	15.000000	1.200000	78.000000	1	0	6.5	2.948000
22.000000	e_78_a1.2	feedback	5	n/a	1.200000	78.000000	n/a	n/a	n/a	6.064000
23.000000	i_84_a1.4	dec_learn	1.000000	25.000000	1.400000	84.000000	n/a	n/a	n/a	7.128000
23.000000	i_84_a1.4	dec_learn	2.000000	42.000000	1.400000	84.000000	n/a	n/a	n/a	5.390000
23.000000	i_84_a1.4	dec_learn	3.000000	55.000000	1.400000	84.000000	n/a	n/a	n/a	2.387000
23.000000	i_84_a1.4	dec_learn	4.000000	64.000000	1.400000	84.000000	n/a	n/a	n/a	2.295000
23.000000	i_84_a1.4	dec_stay	5.000000	70.000000	1.400000	84.000000	0	1	0	1.437000
23.000000	i_84_a1.4	feedback	5	n/a	1.400000	84.000000	n/a	n/a	n/a	2.177000
24.000000	i_88_a1.2	dec_learn	1.000000	16.000000	1.200000	88.000000	n/a	n/a	n/a	23.367000
24.000000	i_88_a1.2	dec_learn	2.000000	30.000000	1.200000	88.000000	n/a	n/a	n/a	16.175000
24.000000	i_88_a1.2	dec_learn	3.000000	42.000000	1.200000	88.000000	n/a	n/a	n/a	2.348000
24.000000	i_88_a1.2	dec_learn	4.000000	51.000000	1.200000	88.000000	n/a	n/a	n/a	8.020000
24.000000	i_88_a1.2	dec_learn	5.000000	59.000000	1.200000	88.000000	n/a	n/a	n/a	7.105000
24.000000	i_88_a1.2	dec_leave	6.000000	66.000000	1.200000	88.000000	1	0	6	2.335000
24.000000	i_88_a1.2	feedback	6	n/a	1.200000	88.000000	n/a	n/a	n/a	51.240000
