block	trial_type	phase	turn	tokens	alpha	final_value	correct	stay	earnings	response_time
1.000000	e_166_a1.4	dec_leave	1.000000	1.000000	1.400000	166.000000	0	0	0	13.168000
1.000000	e_166_a1.4	feedback	1	n/a	1.400000	166.000000	n/a	n/a	n/a	8.597000
2.000000	i_88_a1.2	dec_stay	1.000000	16.000000	1.200000	88.000000	0	1	0	7.900000
2.000000	i_88_a1.2	feedback	1	n/a	1.200000	88.000000	n/a	n/a	n/a	6.771000
3.000000	i_84_a1.4	dec_stay	1.000000	25.000000	1.400000	84.000000	0	1	0	7.326000
3.000000	i_84_a1.4	feedback	1	n/a	1.400000	84.000000	n/a	n/a	n/a	6.667000
4.000000	e_59_a1.4	dec_learn	1.000000	0.000000	1.400000	59.000000	n/a	n/a	n/a	7.696000
4.000000	e_59_a1.4	dec_learn	2.000000	1.000000	1.400000	59.000000	n/a	n/a	n/a	8.592000
4.000000	e_59_a1.4	dec_leave	3.000000	2.000000	1.400000	59.000000	1	0	7.5	12.773000
4.000000	e_59_a1.4	feedback	3	n/a	1.400000	59.000000	n/a	n/a	n/a	7.822000
5.000000	i_116_a1.4	dec_stay	1.000000	34.000000	1.400000	116.000000	1	1	8.5	19.900000
5.000000	i_116_a1.4	feedback	1	n/a	1.400000	116.000000	n/a	n/a	n/a	5.301000
6.000000	i_88_a1.2	dec_leave	1.000000	16.000000	1.200000	88.000000	1	0	8.5	13.573000
6.000000	i_88_a1.2	feedback	1	n/a	1.200000	88.000000	n/a	n/a	n/a	4.100000
7.000000	e_78_a1.2	dec_leave	1.000000	2.000000	1.200000	78.000000	1	0	8.5	10.424000
7.000000	e_78_a1.2	feedback	1	n/a	1.200000	78.000000	n/a	n/a	n/a	4.590000
8.000000	e_78_a1.2	dec_leave	1.000000	2.000000	1.200000	78.000000	1	0	8.5	10.500000
8.000000	e_78_a1.2	feedback	1	n/a	1.200000	78.000000	n/a	n/a	n/a	4.769000
9.000000	e_166_a1.4	dec_learn	1.000000	1.000000	1.400000	166.000000	n/a	n/a	n/a	10.552000
9.000000	e_166_a1.4	dec_leave	2.000000	3.000000	1.400000	166.000000	0	0	0	15.553000
9.000000	e_166_a1.4	feedback	2	n/a	1.400000	166.000000	n/a	n/a	n/a	4.092000
10.000000	i_84_a1.4	dec_stay	1.000000	25.000000	1.400000	84.000000	0	1	0	6.772000
10.000000	i_84_a1.4	feedback	1	n/a	1.400000	84.000000	n/a	n/a	n/a	4.701000
11.000000	e_59_a1.4	dec_leave	1.000000	0.000000	1.400000	59.000000	1	0	8.5	7.232000
11.000000	e_59_a1.4	feedback	1	n/a	1.400000	59.000000	n/a	n/a	n/a	7.589000
12.000000	i_113_a1.2	dec_stay	1.000000	21.000000	1.200000	113.000000	1	1	8.5	7.500000
12.000000	i_113_a1.2	feedback	1	n/a	1.200000	113.000000	n/a	n/a	n/a	6.486000
13.000000	e_127_a1.2	dec_learn	1.000000	3.000000	1.200000	127.000000	n/a	n/a	n/a	13.773000
13.000000	e_127_a1.2	dec_stay	2.000000	7.000000	1.200000	127.000000	1	1	8	36.480000
13.000000	e_127_a1.2	feedback	2	n/a	1.200000	127.000000	n/a	n/a	n/a	8.000000
14.000000	i_116_a1.4	dec_learn	1.000000	34.000000	1.400000	116.000000	n/a	n/a	n/a	10.158000
14.000000	i_116_a1.4	dec_stay	2.000000	58.000000	1.400000	116.000000	1	1	8	8.341000
14.000000	i_116_a1.4	feedback	2	n/a	1.400000	116.000000	n/a	n/a	n/a	3.697000
15.000000	i_84_a1.4	dec_learn	1.000000	25.000000	1.400000	84.000000	n/a	n/a	n/a	9.168000
15.000000	i_84_a1.4	dec_stay	2.000000	42.000000	1.400000	84.000000	0	1	0	8.875000
15.000000	i_84_a1.4	feedback	2	n/a	1.400000	84.000000	n/a	n/a	n/a	5.463000
16.000000	e_166_a1.4	dec_leave	1.000000	1.000000	1.400000	166.000000	0	0	0	11.242000
16.000000	e_166_a1.4	feedback	1	n/a	1.400000	166.000000	n/a	n/a	n/a	3.881000
17.000000	i_88_a1.2	dec_stay	1.000000	16.000000	1.200000	88.000000	0	1	0	7.973000
17.000000	i_88_a1.2	feedback	1	n/a	1.200000	88.000000	n/a	n/a	n/a	4.449000
18.000000	i_116_a1.4	dec_stay	1.000000	34.000000	1.400000	116.000000	1	1	8.5	7.056000
18.000000	i_116_a1.4	feedback	1	n/a	1.400000	116.000000	n/a	n/a	n/a	4.564000
19.000000	e_127_a1.2	dec_learn	1.000000	3.000000	1.200000	127.000000	n/a	n/a	n/a	13.223000
19.000000	e_127_a1.2	dec_learn	2.000000	7.000000	1.200000	127.000000	n/a	n/a	n/a	11.501000
19.000000	e_127_a1.2	dec_stay	3.000000	12.000000	1.200000	127.000000	1	1	7.5	9.598000
19.000000	e_127_a1.2	feedback	3	n/a	1.200000	127.000000	n/a	n/a	n/a	4.384000
20.000000	e_78_a1.2	dec_learn	1.000000	2.000000	1.200000	78.000000	n/a	n/a	n/a	7.466000
20.000000	e_78_a1.2	dec_leave	2.000000	4.000000	1.200000	78.000000	1	0	8	7.628000
20.000000	e_78_a1.2	feedback	2	n/a	1.200000	78.000000	n/a	n/a	n/a	3.443000
21.000000	i_113_a1.2	dec_learn	1.000000	21.000000	1.200000	113.000000	n/a	n/a	n/a	8.727000
21.000000	i_113_a1.2	dec_stay	2.000000	39.000000	1.200000	113.000000	1	1	8	11.000000
21.000000	i_113_a1.2	feedback	2	n/a	1.200000	113.000000	n/a	n/a	n/a	4.158000
22.000000	e_59_a1.4	dec_learn	1.000000	0.000000	1.400000	59.000000	n/a	n/a	n/a	8.387000
22.000000	e_59_a1.4	dec_learn	2.000000	1.000000	1.400000	59.000000	n/a	n/a	n/a	7.932000
22.000000	e_59_a1.4	dec_leave	3.000000	2.000000	1.400000	59.000000	1	0	7.5	7.451000
22.000000	e_59_a1.4	feedback	3	n/a	1.400000	59.000000	n/a	n/a	n/a	3.731000
23.000000	i_113_a1.2	dec_learn	1.000000	21.000000	1.200000	113.000000	n/a	n/a	n/a	6.756000
23.000000	i_113_a1.2	dec_stay	2.000000	39.000000	1.200000	113.000000	1	1	8	7.742000
23.000000	i_113_a1.2	feedback	2	n/a	1.200000	113.000000	n/a	n/a	n/a	3.900000
24.000000	e_127_a1.2	dec_learn	1.000000	3.000000	1.200000	127.000000	n/a	n/a	n/a	6.800000
24.000000	e_127_a1.2	dec_stay	2.000000	7.000000	1.200000	127.000000	1	1	8	9.251000
24.000000	e_127_a1.2	feedback	2	n/a	1.200000	127.000000	n/a	n/a	n/a	3.996000
